Time(ms),Interval,Qx,Qy,Qz,Qw,Mx,My,Mz,Ax,Ay,Az,Rx,Ry,Rz,H1,P1,R1,H2,P2,R2,CalStable,MagTransient
0000979744,6,0.0649,0.5879,-0.0981,0.8003,46,-196,618,-1991,-11,599,-7,0,1,344.3970,72.5160,-2.2088,1,1
0000979765,6,0.0648,0.5879,-0.0980,0.8003,46,-196,618,-1991,-11,603,-3,-3,1,344.4151,72.5101,-2.2070,1,1
0000979786,6,0.0647,0.5878,-0.0980,0.8004,46,-198,619,-1987,-19,607,-2,-4,1,344.4342,72.4971,-2.1985,1,1
0000979807,6,0.0647,0.5878,-0.0979,0.8005,46,-198,619,-1999,-23,627,2,-1,0,344.4431,72.4883,-2.1882,1,1
0000979828,6,0.0648,0.5878,-0.0979,0.8005,46,-198,619,-1999,-27,627,-1,1,2,344.4597,72.4873,-2.1699,1,1
0000979849,6,0.0648,0.5878,-0.0978,0.8004,47,-198,618,-2003,-23,611,-6,4,2,344.4806,72.4955,-2.1591,1,1
0000979870,6,0.0647,0.5880,-0.0976,0.8004,46,-199,618,-1991,-19,607,-5,5,2,344.5070,72.5151,-2.1581,1,1
0000979891,6,0.0647,0.5881,-0.0976,0.8003,46,-199,617,-1991,-19,591,1,3,1,344.5253,72.5280,-2.1445,1,1
0000979912,6,0.0648,0.5881,-0.0976,0.8003,46,-199,617,-1995,-23,599,5,1,1,344.5386,72.5359,-2.1204,1,1
0000979933,6,0.0650,0.5881,-0.0977,0.8002,44,-198,618,-2003,-23,607,8,1,0,344.5499,72.5421,-2.0847,1,1
0000979954,6,0.0651,0.5881,-0.0978,0.8002,46,-197,617,-1999,-31,615,1,2,3,344.5631,72.5477,-2.0529,1,1
0000979975,6,0.0652,0.5882,-0.0976,0.8002,44,-197,618,-1999,-11,599,-2,2,3,344.6045,72.5583,-2.0182,1,1
0000979996,6,0.0652,0.5882,-0.0976,0.8001,44,-198,618,-2003,-15,599,3,2,2,344.6328,72.5655,-1.9882,1,1
0000980017,6,0.0654,0.5883,-0.0976,0.8001,43,-197,616,-2003,-27,603,5,1,3,344.6690,72.5706,-1.9373,1,1
0000980038,6,0.0656,0.5883,-0.0976,0.8001,43,-197,616,-2003,-23,619,4,3,3,344.7018,72.5778,-1.8908,1,1
0000980059,6,0.0657,0.5884,-0.0975,0.8000,43,-196,616,-1999,-19,607,0,5,4,344.7417,72.5912,-1.8469,1,1
0000980080,6,0.0658,0.5885,-0.0974,0.7999,43,-197,616,-1995,-7,615,2,6,4,344.7920,72.6154,-1.7945,1,1
0000980101,6,0.0660,0.5886,-0.0974,0.7998,42,-196,616,-1987,-3,607,6,6,3,344.8211,72.6360,-1.7521,1,1
0000980122,6,0.0662,0.5888,-0.0974,0.7997,41,-195,614,-2007,-7,611,6,7,4,344.8636,72.6584,-1.6908,1,1
0000980143,6,0.0664,0.5889,-0.0974,0.7995,41,-195,614,-2015,-19,611,2,9,5,344.9128,72.6858,-1.6292,1,1
0000980164,6,0.0665,0.5892,-0.0971,0.7993,40,-196,615,-2011,-27,611,-7,12,7,344.9964,72.7302,-1.5607,1,1
0000980185,6,0.0664,0.5895,-0.0967,0.7992,38,-198,613,-2003,-27,611,-17,14,10,345.0940,72.7720,-1.5096,1,1
0000980206,6,0.0662,0.5899,-0.0961,0.7990,36,-196,612,-1995,-19,607,-19,16,11,345.2086,72.8213,-1.4584,1,1
0000980227,6,0.0661,0.5903,-0.0955,0.7988,37,-197,609,-1995,-15,603,-14,18,14,345.3375,72.8765,-1.3874,1,1
0000980248,6,0.0662,0.5907,-0.0950,0.7985,37,-197,609,-2011,-27,591,-7,20,17,345.4917,72.9359,-1.2679,1,1
0000980269,6,0.0664,0.5912,-0.0943,0.7982,32,-199,610,-2003,-35,571,-8,20,18,345.7175,73.0142,-1.0829,1,1
0000980290,6,0.0667,0.5916,-0.0939,0.7980,32,-198,606,-2003,-11,563,1,17,17,345.8961,73.0744,-0.9229,1,1
0000980311,6,0.0672,0.5919,-0.0937,0.7977,28,-197,606,-2019,-27,575,19,13,18,346.0806,73.1201,-0.7092,1,1
0000980332,6,0.0682,0.5920,-0.0937,0.7975,28,-193,606,-1995,-39,571,34,12,17,346.2659,73.1617,-0.4423,1,1
0000980353,6,0.0693,0.5922,-0.0940,0.7973,25,-191,606,-1971,-23,563,46,8,18,346.4517,73.1964,-0.1425,1,1
0000980374,6,0.0712,0.5921,-0.0946,0.7971,25,-191,606,-1963,-7,607,67,5,17,346.6841,73.2229,0.2936,1,1
0000980395,6,0.0732,0.5920,-0.0955,0.7969,23,-188,608,-1983,-19,627,87,8,16,346.8558,73.2442,0.7035,1,1
0000980416,6,0.0755,0.5920,-0.0966,0.7965,22,-180,608,-1963,-15,651,95,15,18,347.0443,73.2819,1.1694,1,1
0000980437,6,0.0779,0.5922,-0.0976,0.7960,18,-174,608,-1943,3,651,99,26,23,347.2756,73.3476,1.6867,1,1
0000980458,6,0.0806,0.5926,-0.0987,0.7954,16,-166,606,-1923,19,655,113,38,29,347.5630,73.4418,2.2834,1,1
0000980479,6,0.0845,0.5932,-0.1000,0.7943,16,-166,606,-1931,43,619,120,49,33,348.0117,73.6044,3.1577,1,1
0000980500,6,0.0880,0.5940,-0.1012,0.7932,9,-158,604,-1943,59,631,143,59,38,348.4410,73.7641,3.9737,1,1
0000980521,6,0.0922,0.5948,-0.1027,0.7919,5,-146,599,-1955,39,639,165,71,44,348.9493,73.9556,4.9440,1,1
0000980542,6,0.0967,0.5959,-0.1042,0.7904,-2,-134,596,-1947,27,639,175,86,50,349.5609,74.1843,6.0554,1,1
0000980563,6,0.1016,0.5973,-0.1056,0.7885,-10,-119,588,-1939,83,615,185,107,56,350.2835,74.4545,7.2941,1,1
0000980584,6,0.1084,0.5994,-0.1077,0.7857,-22,-105,582,-1967,59,643,218,124,59,351.3425,74.8580,9.0802,1,1
0000980605,6,0.1147,0.6014,-0.1097,0.7830,-22,-105,582,-2039,-7,667,233,146,69,352.3761,75.2347,10.7831,1,1
0000980626,6,0.1209,0.6039,-0.1110,0.7800,-34,-88,572,-2295,-83,563,206,175,84,353.7156,75.6769,12.7458,1,1
0000980647,6,0.1269,0.6070,-0.1116,0.7766,-52,-74,557,-2375,-159,531,177,195,95,355.3789,76.1663,14.9337,1,1
0000980668,6,0.1319,0.6105,-0.1112,0.7730,-71,-62,544,-2167,39,335,125,213,93,357.2838,76.6957,17.2215,1,1
0000980689,6,0.1387,0.6145,-0.1115,0.7686,-88,-47,535,-1887,611,-39,237,169,80,359.7485,77.2909,20.2628,1,1
0000980710,6,0.1484,0.6157,-0.1158,0.7651,-88,-47,535,-1991,459,0,480,110,69,1.4504,77.5843,23.1149,1,1
0000980731,6,0.1614,0.6153,-0.1237,0.7616,-100,-17,533,-2123,127,295,616,69,52,2.7270,77.7396,26.1247,1,1
0000980752,6,0.1736,0.6144,-0.1318,0.7583,-105,16,533,-2063,71,307,443,53,34,3.6721,77.8395,28.7573,1,1
0000980773,6,0.1822,0.6140,-0.1372,0.7556,-112,38,534,-1995,455,279,343,53,30,4.4869,77.9349,30.7377,1,1
0000980794,6,0.1920,0.6134,-0.1436,0.7525,-114,61,532,-2035,427,455,386,49,22,5.3886,78.0437,32.9977,1,1
0000980815,6,0.2005,0.6130,-0.1494,0.7495,-114,61,532,-2115,251,531,391,72,12,6.1230,78.1692,34.9218,1,1
0000980836,6,0.2081,0.6133,-0.1545,0.7461,-121,82,530,-2119,95,499,332,104,6,7.0421,78.3828,36.9144,1,1
0000980857,6,0.2140,0.6146,-0.1582,0.7425,-128,98,521,-2067,319,383,219,142,0,8.2331,78.6728,38.9113,1,1
0000980878,6,0.2186,0.6167,-0.1607,0.7390,-142,108,513,-2031,351,279,191,152,-7,9.6919,79.0229,40.9581,1,1
0000980899,6,0.2236,0.6195,-0.1637,0.7344,-153,116,499,-2047,127,239,159,150,-12,11.5835,79.4840,43.5144,1,1
0000980920,6,0.2260,0.6221,-0.1646,0.7313,-165,117,489,-2055,151,227,57,151,-4,13.2702,79.8311,45.4647,1,1
0000980941,6,0.2270,0.6249,-0.1640,0.7287,-165,117,489,-2051,311,175,1,147,-1,15.1530,80.1489,47.3708,1,1
0000980962,6,0.2275,0.6276,-0.1632,0.7264,-175,116,477,-2039,331,55,3,126,-7,16.9799,80.4394,49.1728,1,1
0000980983,6,0.2279,0.6300,-0.1626,0.7244,-185,115,467,-2039,311,75,-5,111,-10,18.5959,80.6934,50.7665,1,1
0000981004,6,0.2275,0.6326,-0.1617,0.7224,-191,112,459,-2059,335,107,-39,89,-19,20.1986,80.9716,52.2534,1,1
0000981025,6,0.2265,0.6346,-0.1609,0.7211,-197,106,451,-2075,359,183,-45,82,-33,21.2057,81.1941,53.1047,1,1
0000981046,6,0.2255,0.6366,-0.1608,0.7198,-197,106,451,-2079,347,283,-28,84,-52,22.0010,81.4541,53.7892,1,1
0000981067,6,0.2242,0.6389,-0.1610,0.7181,-202,103,445,-2091,339,327,-29,107,-78,22.7879,81.7802,54.4817,1,1
0000981088,6,0.2221,0.6426,-0.1613,0.7153,-210,96,433,-2099,307,267,-49,134,-97,24.1254,82.3137,55.6625,1,1
0000981109,6,0.2197,0.6463,-0.1614,0.7127,-220,87,421,-2035,331,87,-69,152,-110,25.6083,82.8324,56.9359,1,1
0000981130,6,0.2172,0.6502,-0.1614,0.7100,-229,78,405,-2051,251,31,-67,155,-110,27.4613,83.3659,58.5660,1,1
0000981151,6,0.2147,0.6539,-0.1614,0.7073,-239,68,391,-2039,183,23,-68,148,-106,29.5293,83.8836,60.4152,1,1
0000981172,6,0.2123,0.6575,-0.1614,0.7047,-239,68,391,-2031,151,43,-56,138,-104,31.8216,84.3700,62.4994,1,1
0000981193,6,0.2094,0.6617,-0.1616,0.7015,-245,60,377,-2055,87,99,-59,136,-102,34.9717,84.9552,65.4251,1,1
0000981214,6,0.2067,0.6653,-0.1611,0.6991,-254,51,366,-2111,-95,191,-113,147,-93,38.3357,85.3953,68.5061,1,1
0000981235,6,0.2025,0.6695,-0.1587,0.6968,-260,37,348,-2103,-91,247,-222,172,-83,43.2160,85.8163,72.8326,1,1
0000981256,6,0.1966,0.6745,-0.1540,0.6948,-271,20,328,-2143,-35,211,-319,195,-67,50.1785,86.1782,78.9051,1,1
0000981277,6,0.1898,0.6801,-0.1476,0.6926,-271,20,328,-2335,-303,271,-413,226,-48,59.7699,86.4306,87.3846,1,1
0000981298,6,0.1784,0.6882,-0.1357,0.6900,-285,-3,303,-2351,-351,287,-606,254,-35,74.8080,86.5418,100.4838,1,1
0000981319,6,0.1651,0.6956,-0.1214,0.6886,-300,-32,267,-2487,67,-103,-812,252,-28,87.4741,86.4122,110.8650,1,1
0000981340,6,0.1503,0.7024,-0.1066,0.6876,-317,-64,236,-2299,387,-487,-730,204,-59,98.2530,86.2612,119.1918,1,1
0000981361,6,0.1414,0.7064,-0.0993,0.6864,-328,-84,221,-2039,339,215,-225,96,-81,105.5656,86.2203,125.1766,1,1
0000981382,6,0.1404,0.7073,-0.1011,0.6855,-338,-86,217,-1963,151,383,139,-24,-71,109.1810,86.3569,128.8512,1,1
0000981403,6,0.1420,0.7053,-0.1060,0.6864,-338,-86,217,-1663,259,603,137,-128,-43,107.7144,86.7009,127.9233,1,1
0000981424,6,0.1432,0.7005,-0.1104,0.6904,-340,-86,218,-1591,631,591,159,-335,-41,96.8062,87.2182,117.4665,1,1
0000981445,6,0.1453,0.6913,-0.1181,0.6979,-333,-82,237,-1707,-31,575,319,-527,-93,65.7881,87.7333,87.2597,1,1
0000981466,6,0.1471,0.6794,-0.1277,0.7075,-318,-79,261,-1783,-147,635,242,-644,-80,23.4241,87.2305,45.8426,1,1
0000981487,6,0.1458,0.6661,-0.1331,0.7192,-302,-78,283,-1907,-127,651,-25,-718,-15,2.1331,85.5763,24.8987,1,1
0000981508,6,0.1403,0.6489,-0.1344,0.7357,-302,-78,283,-1899,-35,583,-156,-741,23,352.6677,82.9442,15.1113,1,1
0000981529,6,0.1344,0.6345,-0.1332,0.7494,-286,-81,305,-1919,3,691,-206,-768,36,349.6160,80.6744,11.5057,1,1
0000981550,6,0.1272,0.6198,-0.1309,0.7632,-273,-86,322,-1991,139,547,-285,-759,38,347.9279,78.3565,9.0730,1,1
0000981571,6,0.1196,0.6053,-0.1281,0.7765,-265,-92,342,-1979,319,455,-254,-743,36,347.0006,76.0766,7.3238,1,1
0000981592,6,0.1135,0.5911,-0.1266,0.7885,-255,-96,359,-1971,395,211,-148,-670,5,346.3118,73.9124,6.0554,1,1
0000981613,6,0.1086,0.5749,-0.1275,0.8009,-255,-96,359,-2007,399,167,-1,-575,-16,345.4875,71.5479,4.9554,1,1
0000981634,6,0.1095,0.5647,-0.1306,0.8075,-255,-92,374,-2087,103,35,184,-381,12,345.1026,70.1476,4.9581,1,1
0000981655,6,0.1143,0.5592,-0.1334,0.8102,-259,-77,377,-2319,-87,-47,214,-110,74,345.3872,69.4929,5.8889,1,1
0000981676,6,0.1192,0.5602,-0.1330,0.8089,-283,-62,363,-2503,187,-87,81,190,118,346.3740,69.7087,7.2518,1,1
0000981697,6,0.1207,0.5675,-0.1282,0.8043,-313,-54,327,-2755,19,-687,-114,453,104,347.9107,70.7067,8.4784,1,1
0000981718,6,0.1229,0.5800,-0.1224,0.7959,-340,-47,295,-2179,55,311,-62,455,117,350.0292,72.4372,10.2383,1,1
0000981739,6,0.1231,0.5852,-0.1167,0.7930,-340,-47,295,-2583,-483,803,-119,86,123,351.9114,73.0943,11.6554,1,1
0000981760,6,0.1232,0.5845,-0.1152,0.7937,-344,-43,289,-2555,-347,-143,22,-16,27,352.3954,72.9766,12.0244,1,1
0000981781,6,0.1274,0.5852,-0.1170,0.7923,-351,-36,288,-1691,583,555,353,49,17,352.8155,73.1368,12.9362,1,1
0000981802,6,0.1374,0.5838,-0.1244,0.7905,-349,-17,299,-1783,707,703,652,-49,-18,352.8181,73.1625,14.3863,1,1
0000981823,6,0.1542,0.5796,-0.1368,0.7884,-349,3,306,-1883,-163,831,555,-34,33,352.7408,72.9675,16.7594,1,1
0000981844,6,0.1605,0.5789,-0.1387,0.7873,-349,3,306,-2023,35,691,40,56,108,353.6196,72.9563,18.3188,1,1
0000981865,6,0.1602,0.5805,-0.1340,0.7870,-355,11,300,-2155,151,567,-143,84,123,355.0782,73.0658,19.3662,1,1
0000981886,6,0.1610,0.5817,-0.1306,0.7865,-360,16,293,-2035,259,527,88,61,97,356.4094,73.1640,20.4782,1,1
0000981907,6,0.1660,0.5820,-0.1309,0.7853,-367,30,292,-1999,191,567,237,51,89,357.5533,73.2219,22.0571,1,1
0000981928,6,0.1738,0.5818,-0.1325,0.7834,-373,43,290,-2031,91,575,183,57,96,358.9282,73.2664,24.2245,1,1
0000981949,6,0.1770,0.5829,-0.1304,0.7823,-384,48,282,-2015,75,551,-39,104,135,0.4630,73.3481,25.8454,1,1
0000981970,6,0.1762,0.5852,-0.1239,0.7818,-384,48,282,-1951,391,407,-242,122,165,2.4969,73.4638,27.2604,1,1
0000981991,6,0.1737,0.5876,-0.1158,0.7818,-391,51,272,-2027,447,411,-251,104,166,4.6690,73.5264,28.5425,1,1
0000982012,6,0.1723,0.5894,-0.1091,0.7817,-400,55,266,-1991,459,499,-144,77,135,6.5887,73.5402,29.7897,1,1
0000982033,6,0.1721,0.5908,-0.1033,0.7815,-404,59,259,-2035,227,439,-84,59,116,8.5015,73.5157,31.1932,1,1
0000982054,6,0.1724,0.5916,-0.0995,0.7813,-409,63,255,-1995,235,519,-84,54,108,9.8256,73.4822,32.2276,1,1
0000982075,6,0.1716,0.5927,-0.0950,0.7812,-409,63,255,-1991,339,339,-158,59,108,11.1254,73.4539,33.0852,1,1
0000982096,6,0.1701,0.5937,-0.0901,0.7813,-414,66,251,-1931,619,283,-128,43,99,12.3822,73.4112,33.8155,1,1
0000982117,6,0.1714,0.5939,-0.0870,0.7812,-417,68,249,-2071,183,483,22,16,93,13.6208,73.2912,34.9067,1,1
0000982138,6,0.1727,0.5938,-0.0848,0.7813,-418,76,248,-2031,167,467,-43,10,95,14.5051,73.1572,35.7203,1,1
0000982159,6,0.1728,0.5937,-0.0816,0.7817,-419,80,248,-1987,451,527,-67,10,96,15.3913,73.0091,36.3552,1,1
0000982180,6,0.1737,0.5936,-0.0791,0.7818,-419,80,248,-2011,379,527,-12,15,95,16.2645,72.8653,37.0989,1,1
0000982201,6,0.1748,0.5936,-0.0767,0.7818,-422,87,248,-2027,311,547,-38,28,93,17.1596,72.7471,37.8834,1,1
0000982222,6,0.1752,0.5941,-0.0731,0.7817,-424,92,244,-1983,395,427,-67,31,89,18.3332,72.6225,38.7981,1,1
0000982243,6,0.1757,0.5944,-0.0705,0.7816,-427,97,243,-1967,439,555,-21,30,83,19.2006,72.5320,39.4879,1,1
0000982264,6,0.1770,0.5948,-0.0684,0.7812,-430,102,242,-2023,227,571,-22,43,87,20.0965,72.4503,40.3226,1,1
0000982285,6,0.1766,0.5956,-0.0649,0.7809,-435,102,236,-1991,655,411,-115,58,86,21.1236,72.3991,41.0290,1,1
0000982306,6,0.1764,0.5966,-0.0618,0.7805,-435,102,236,-1979,399,503,-23,54,67,22.1045,72.3711,41.7301,1,1
0000982327,6,0.1773,0.5977,-0.0596,0.7796,-438,106,232,-1967,451,507,-11,58,52,23.1368,72.3776,42.6609,1,1
0000982348,6,0.1779,0.5988,-0.0582,0.7787,-443,110,228,-2011,403,479,-10,64,46,23.9130,72.4165,43.3687,1,1
0000982369,6,0.1783,0.6000,-0.0567,0.7779,-447,113,223,-1967,559,315,-31,65,38,24.6795,72.4716,44.0306,1,1
0000982390,6,0.1784,0.6010,-0.0554,0.7771,-451,115,221,-1967,515,307,-5,53,28,25.3321,72.5292,44.5868,1,1
0000982411,6,0.1793,0.6018,-0.0550,0.7763,-451,115,221,-1955,447,303,38,27,14,25.8007,72.5720,45.1021,1,1
0000982432,6,0.1809,0.6021,-0.0556,0.7757,-453,119,219,-1959,359,371,53,12,11,26.0841,72.5885,45.5620,1,1
0000982453,6,0.1818,0.6021,-0.0561,0.7754,-453,117,219,-1959,603,311,42,0,3,26.1645,72.5881,45.7610,1,1
0000982474,6,0.1834,0.6019,-0.0574,0.7751,-453,121,221,-1999,443,355,98,-11,-4,26.0997,72.5758,45.9378,1,1
0000982495,6,0.1852,0.6014,-0.0591,0.7749,-451,124,221,-2007,383,371,84,-19,-3,25.9523,72.5499,46.0857,1,1
0000982516,6,0.1865,0.6009,-0.0603,0.7749,-451,125,224,-1971,471,379,66,-26,-5,25.7693,72.5132,46.1110,1,1
0000982537,6,0.1885,0.6000,-0.0623,0.7750,-451,125,224,-1975,375,483,93,-31,-7,25.4430,72.4508,46.1180,1,1
0000982558,6,0.1898,0.5993,-0.0639,0.7751,-448,126,225,-1975,471,423,64,-26,-11,25.1532,72.4138,46.0673,1,1
0000982579,6,0.1911,0.5988,-0.0655,0.7750,-447,130,229,-1947,463,459,89,-24,-17,24.8811,72.3960,46.0383,1,1
0000982600,6,0.1931,0.5981,-0.0679,0.7748,-444,131,229,-1963,203,571,120,-24,-16,24.5611,72.3830,46.0870,1,1
0000982621,6,0.1941,0.5978,-0.0691,0.7747,-446,132,230,-1995,343,523,-16,3,1,24.3894,72.3768,46.0945,1,1
0000982642,6,0.1933,0.5981,-0.0682,0.7747,-446,132,230,-1999,571,411,-39,16,5,24.5278,72.3932,46.0953,1,1
0000982663,6,0.1931,0.5986,-0.0679,0.7745,-448,131,228,-1967,511,403,5,20,-1,24.6858,72.4315,46.2090,1,1
0000982684,6,0.1933,0.5990,-0.0681,0.7741,-448,131,225,-1983,551,355,15,21,-9,24.8048,72.4885,46.3627,1,1
0000982705,6,0.1939,0.5994,-0.0687,0.7736,-450,134,223,-2063,275,407,30,19,-4,24.8834,72.5505,46.5422,1,1
0000982726,6,0.1939,0.5998,-0.0687,0.7733,-452,131,222,-1967,507,327,-37,18,0,24.9980,72.6000,46.6522,1,1
0000982747,6,0.1934,0.6002,-0.0683,0.7731,-453,132,222,-1959,511,387,12,7,-3,25.1109,72.6393,46.6925,1,1
0000982768,6,0.1942,0.6003,-0.0690,0.7728,-453,132,222,-1983,319,479,43,5,-6,25.1136,72.6629,46.8190,1,1
0000982789,6,0.1943,0.6005,-0.0691,0.7726,-453,132,219,-2007,419,371,-22,13,0,25.1624,72.6927,46.8800,1,1
0000982810,6,0.1934,0.6008,-0.0683,0.7726,-455,132,220,-1995,439,323,-36,8,3,25.2803,72.7153,46.8607,1,1
0000982831,6,0.1930,0.6010,-0.0678,0.7726,-455,132,218,-1979,491,399,-13,3,2,25.3481,72.7203,46.8517,1,1
0000982852,6,0.1930,0.6011,-0.0677,0.7726,-456,131,219,-1975,451,391,2,5,0,25.4032,72.7312,46.8953,1,1
0000982873,6,0.1931,0.6012,-0.0677,0.7725,-456,131,219,-2007,367,403,1,5,4,25.4655,72.7338,46.9682,1,1
0000982894,6,0.1928,0.6013,-0.0672,0.7725,-455,131,217,-2003,447,403,-29,6,6,25.5518,72.7328,46.9931,1,1
0000982915,6,0.1925,0.6015,-0.0667,0.7725,-457,131,217,-2003,451,411,-11,12,4,25.6617,72.7392,47.0263,1,1
0000982936,6,0.1924,0.6018,-0.0665,0.7723,-457,131,215,-2023,411,423,-1,16,4,25.7911,72.7590,47.1318,1,1
0000982957,6,0.1923,0.6023,-0.0660,0.7719,-459,132,214,-1999,447,407,-19,22,4,26.0200,72.7957,47.3162,1,1
0000982978,6,0.1920,0.6028,-0.0654,0.7717,-459,132,214,-1979,451,395,-20,23,4,26.2277,72.8348,47.4407,1,1
0000982999,6,0.1918,0.6033,-0.0650,0.7714,-461,130,213,-2003,439,383,-11,24,4,26.4428,72.8766,47.6069,1,1
0000983020,6,0.1916,0.6038,-0.0646,0.7711,-462,131,210,-2003,403,387,-19,23,4,26.6566,72.9162,47.7648,1,1
0000983041,6,0.1910,0.6044,-0.0637,0.7708,-464,130,208,-1983,479,327,-32,23,4,26.9203,72.9640,47.9058,1,1
0000983062,6,0.1906,0.6048,-0.0633,0.7706,-464,130,206,-1983,491,307,-7,13,-1,27.0576,72.9980,47.9805,1,1
0000983083,6,0.1909,0.6050,-0.0635,0.7704,-466,131,208,-1991,459,367,21,6,-4,27.1078,73.0245,48.0654,1,1
0000983104,6,0.1913,0.6051,-0.0640,0.7702,-466,131,208,-1995,363,427,24,3,-5,27.1031,73.0447,48.1394,1,1
0000983125,6,0.1913,0.6052,-0.0642,0.7701,-464,130,206,-1983,419,395,-19,7,-2,27.1017,73.0658,48.1556,1,1
0000983146,6,0.1907,0.6054,-0.0637,0.7701,-466,128,208,-1983,459,371,-21,8,-1,27.1655,73.0910,48.1259,1,1
0000983167,6,0.1905,0.6056,-0.0636,0.7700,-465,129,204,-1987,419,387,-6,8,-3,27.2072,73.1134,48.1327,1,1
0000983188,6,0.1903,0.6059,-0.0635,0.7699,-466,130,205,-2003,447,383,-6,10,-3,27.2604,73.1409,48.1637,1,1
0000983209,6,0.1903,0.6061,-0.0635,0.7697,-466,130,205,-2011,383,403,4,11,-3,27.3201,73.1712,48.2242,1,1
0000983230,6,0.1901,0.6064,-0.0634,0.7695,-468,128,204,-1987,467,351,-20,13,0,27.4041,73.2027,48.2811,1,1
0000983251,6,0.1897,0.6067,-0.0630,0.7694,-469,127,202,-1987,439,343,-7,9,-2,27.5123,73.2382,48.3272,1,1
0000983272,6,0.1897,0.6069,-0.0631,0.7692,-469,129,200,-1995,395,383,6,5,-2,27.5454,73.2590,48.3671,1,1
0000983293,6,0.1897,0.6070,-0.0631,0.7691,-468,126,201,-2015,403,351,-11,5,0,27.5780,73.2753,48.3916,1,1
0000983314,6,0.1893,0.6072,-0.0627,0.7691,-471,128,201,-1983,455,343,-16,6,2,27.6381,73.2851,48.3960,1,1
0000983335,6,0.1892,0.6073,-0.0626,0.7691,-471,128,201,-1987,451,367,0,2,0,27.6899,73.2914,48.4230,1,1
0000983356,6,0.1894,0.6073,-0.0627,0.7690,-469,126,200,-1999,411,399,8,3,-1,27.7108,73.3002,48.4646,1,1
0000983377,6,0.1894,0.6075,-0.0627,0.7689,-471,126,201,-2011,395,391,-2,7,0,27.7571,73.3113,48.5202,1,1
0000983398,6,0.1892,0.6077,-0.0624,0.7688,-469,126,200,-1991,439,351,-15,13,1,27.8518,73.3339,48.5721,1,1
0000983419,6,0.1891,0.6079,-0.0623,0.7686,-472,126,200,-1995,451,339,-2,8,0,27.9379,73.3541,48.6324,1,1
0000983440,6,0.1892,0.6081,-0.0623,0.7685,-472,126,200,-1999,415,363,10,6,-1,27.9878,73.3732,48.6974,1,1
0000983461,6,0.1895,0.6082,-0.0626,0.7683,-471,126,198,-1995,411,379,9,5,0,28.0350,73.3872,48.7873,1,1
0000983482,6,0.1896,0.6083,-0.0625,0.7682,-472,126,198,-1999,419,391,1,6,2,28.0972,73.3968,48.8576,1,1
0000983503,6,0.1897,0.6085,-0.0625,0.7680,-471,127,198,-2007,407,391,0,9,3,28.1838,73.4072,48.9429,1,1
0000983524,6,0.1896,0.6087,-0.0622,0.7679,-473,127,195,-1999,427,359,-9,12,4,28.3036,73.4202,49.0414,1,1
0000983545,6,0.1895,0.6089,-0.0619,0.7678,-473,127,195,-1999,419,363,-11,12,4,28.4361,73.4352,49.1311,1,1
0000983566,6,0.1894,0.6093,-0.0615,0.7676,-473,128,196,-2003,411,379,-9,13,5,28.6052,73.4529,49.2560,1,1
0000983587,6,0.1892,0.6096,-0.0611,0.7674,-475,128,194,-2015,427,351,-15,16,5,28.7669,73.4730,49.3709,1,1
0000983608,6,0.1889,0.6099,-0.0605,0.7672,-475,127,192,-2007,435,327,-29,17,8,28.9566,73.4898,49.4812,1,1
0000983629,6,0.1884,0.6103,-0.0598,0.7672,-476,128,193,-1999,487,319,-25,13,6,29.1300,73.5031,49.5534,1,1
0000983650,6,0.1883,0.6105,-0.0595,0.7670,-477,127,191,-1995,415,355,3,9,3,29.2630,73.5140,49.6580,1,1
0000983671,6,0.1885,0.6107,-0.0594,0.7668,-477,127,191,-1995,411,327,0,6,2,29.3683,73.5260,49.7683,1,1
0000983692,6,0.1886,0.6107,-0.0594,0.7668,-476,126,191,-1995,423,359,6,2,2,29.4182,73.5261,49.8266,1,1
0000983713,6,0.1888,0.6107,-0.0595,0.7667,-478,128,191,-1987,451,391,12,3,0,29.4365,73.5300,49.8765,1,1
0000983734,6,0.1890,0.6109,-0.0596,0.7665,-475,128,189,-2007,407,359,2,12,1,29.5048,73.5452,49.9726,1,1
0000983755,6,0.1890,0.6112,-0.0595,0.7663,-478,128,189,-1999,455,303,-11,13,2,29.6304,73.5667,50.0779,1,1
0000983776,6,0.1890,0.6114,-0.0593,0.7661,-478,128,189,-1995,467,303,12,4,1,29.7578,73.5836,50.1896,1,1
0000983797,6,0.1896,0.6114,-0.0598,0.7660,-478,129,189,-1999,383,403,38,-1,-1,29.7570,73.5842,50.2888,1,1
0000983818,6,0.1902,0.6113,-0.0603,0.7658,-477,128,190,-2007,399,387,16,1,0,29.7536,73.5865,50.3688,1,1
0000983839,6,0.1903,0.6114,-0.0603,0.7657,-477,131,190,-1983,427,383,3,7,2,29.8011,73.5921,50.4282,1,1
0000983860,6,0.1904,0.6116,-0.0602,0.7656,-477,127,189,-1963,419,375,-2,9,1,29.8813,73.6043,50.5080,1,1
0000983881,6,0.1903,0.6118,-0.0600,0.7654,-479,129,188,-1995,391,371,-11,10,2,29.9952,73.6220,50.5911,1,1
0000983902,6,0.1899,0.6121,-0.0595,0.7654,-479,129,188,-2015,415,319,-27,11,4,30.1177,73.6359,50.6388,1,1
0000983923,6,0.1894,0.6123,-0.0589,0.7653,-479,126,187,-2003,459,335,-22,8,4,30.2351,73.6467,50.6714,1,1
0000983944,6,0.1894,0.6124,-0.0588,0.7653,-480,128,186,-2007,403,387,4,4,1,30.2943,73.6531,50.7140,1,1
0000983965,6,0.1894,0.6126,-0.0587,0.7651,-479,129,185,-2007,427,391,-7,12,2,30.3925,73.6671,50.8075,1,1
0000983986,6,0.1893,0.6130,-0.0584,0.7649,-483,128,186,-2015,411,367,-8,23,2,30.5699,73.7003,50.9466,1,1
0000984007,6,0.1891,0.6135,-0.0580,0.7645,-483,128,186,-1999,447,351,-13,26,1,30.7978,73.7454,51.1339,1,1
0000984028,6,0.1890,0.6141,-0.0577,0.7641,-483,128,181,-1995,419,347,-3,26,1,31.0395,73.7933,51.3393,1,1
0000984049,6,0.1890,0.6146,-0.0576,0.7637,-485,128,179,-2007,395,327,-9,25,2,31.2639,73.8415,51.5512,1,1
0000984070,6,0.1887,0.6152,-0.0570,0.7633,-486,129,177,-1999,435,291,-23,23,4,31.5557,73.8901,51.7649,1,1
0000984091,6,0.1883,0.6157,-0.0564,0.7631,-487,129,176,-1995,503,279,-19,18,3,31.7687,73.9183,51.9010,1,1
0000984112,6,0.1883,0.6160,-0.0562,0.7628,-489,129,175,-2003,459,323,5,14,0,31.9134,73.9440,52.0270,1,1
0000984133,6,0.1886,0.6163,-0.0564,0.7625,-489,129,175,-2015,399,351,14,14,-1,32.0311,73.9736,52.1782,1,1
0000984154,6,0.1887,0.6166,-0.0565,0.7622,-489,130,173,-2015,435,323,0,16,-2,32.1526,74.0092,52.3221,1,1
0000984175,6,0.1887,0.6170,-0.0565,0.7619,-491,129,172,-1995,431,327,4,15,-3,32.3051,74.0547,52.4707,1,1
0000984196,6,0.1888,0.6173,-0.0566,0.7616,-490,129,170,-1995,435,303,2,14,-4,32.4094,74.0939,52.5851,1,1
0000984217,6,0.1887,0.6176,-0.0566,0.7614,-493,128,170,-1987,427,307,-3,13,-3,32.5043,74.1284,52.6710,1,1
0000984238,6,0.1885,0.6179,-0.0564,0.7613,-493,128,170,-2003,447,283,-11,9,-3,32.5719,74.1586,52.7107,1,1
0000984259,6,0.1883,0.6181,-0.0564,0.7612,-492,128,169,-1999,439,335,9,3,-8,32.5934,74.1824,52.7190,1,1
0000984280,6,0.1885,0.6182,-0.0570,0.7610,-494,128,170,-1983,431,351,14,4,-11,32.5448,74.2217,52.7274,1,1
0000984301,6,0.1883,0.6184,-0.0572,0.7609,-493,126,166,-2011,411,311,-10,7,-9,32.5272,74.2614,52.7107,1,1
0000984322,6,0.1876,0.6186,-0.0569,0.7608,-494,126,168,-2023,495,255,-28,8,-8,32.5481,74.2975,52.6513,1,1
0000984343,6,0.1873,0.6188,-0.0569,0.7608,-494,126,168,-2031,431,291,2,0,-13,32.5153,74.3315,52.5917,1,1
0000984364,6,0.1873,0.6188,-0.0575,0.7607,-493,126,166,-1995,399,339,19,-2,-15,32.3964,74.3658,52.5233,1,1
0000984385,6,0.1873,0.6188,-0.0582,0.7606,-493,124,167,-1987,463,287,4,-1,-17,32.2301,74.4105,52.4152,1,1
0000984406,6,0.1870,0.6189,-0.0586,0.7607,-493,123,167,-1975,475,271,1,-5,-17,32.0850,74.4466,52.2740,1,1
0000984427,6,0.1869,0.6187,-0.0591,0.7608,-492,121,168,-1983,431,275,6,-14,-19,31.8613,74.4703,52.0795,1,1
0000984448,6,0.1865,0.6184,-0.0597,0.7611,-490,119,170,-2011,483,227,3,-26,-22,31.5258,74.4819,51.7656,1,1
0000984469,6,0.1866,0.6178,-0.0609,0.7614,-490,119,170,-2011,483,199,63,-44,-33,31.0223,74.4831,51.3674,1,1
0000984490,6,0.1880,0.6165,-0.0640,0.7619,-487,118,172,-1995,543,203,119,-58,-40,30.1116,74.4703,50.8349,1,1
0000984511,6,0.1902,0.6151,-0.0677,0.7621,-483,119,179,-1995,439,251,161,-73,-47,29.2203,74.4446,50.4333,1,1
0000984532,6,0.1926,0.6134,-0.0717,0.7625,-477,121,185,-1987,431,271,165,-86,-49,28.1583,74.4012,49.9079,1,1
0000984553,6,0.1952,0.6114,-0.0761,0.7631,-472,123,196,-1999,375,291,177,-102,-48,26.9848,74.3268,49.3098,1,1
0000984574,6,0.1975,0.6091,-0.0803,0.7639,-472,123,196,-1991,431,227,157,-117,-47,25.7039,74.2181,48.5832,1,1
0000984595,6,0.2005,0.6057,-0.0858,0.7652,-464,124,204,-1951,443,247,187,-138,-48,23.9470,74.0294,47.5376,1,1
0000984616,6,0.2037,0.6024,-0.0910,0.7664,-455,124,217,-1955,387,279,222,-164,-47,22.3515,73.8169,46.6516,1,1
0000984637,6,0.2070,0.5985,-0.0964,0.7679,-442,129,229,-1975,415,287,217,-185,-49,20.6008,73.5476,45.6399,1,1
0000984658,6,0.2102,0.5942,-0.1020,0.7696,-432,132,244,-1959,463,391,226,-201,-47,18.7826,73.2385,44.5666,1,1
0000984679,6,0.2135,0.5897,-0.1077,0.7714,-418,136,259,-1991,515,427,228,-207,-56,16.9169,72.8971,43.4756,1,1
0000984700,6,0.2175,0.5840,-0.1151,0.7735,-418,136,259,-1943,435,511,226,-198,-58,14.6208,72.4799,42.1549,1,1
0000984721,6,0.2202,0.5798,-0.1206,0.7751,-405,140,274,-1971,355,515,186,-189,-59,12.8880,72.1576,41.1257,1,1
0000984742,6,0.2218,0.5758,-0.1252,0.7769,-392,142,287,-2019,371,551,129,-178,-58,11.2807,71.8512,40.0532,1,1
0000984763,6,0.2224,0.5723,-0.1289,0.7787,-378,141,295,-2043,423,559,84,-158,-60,9.7985,71.5673,38.9560,1,1
0000984784,6,0.2228,0.5694,-0.1324,0.7802,-370,140,306,-1995,423,747,96,-135,-62,8.4626,71.3327,37.9564,1,1
0000984805,6,0.2240,0.5665,-0.1371,0.7811,-370,140,306,-2051,339,779,108,-90,-71,7.0262,71.1525,37.0246,1,1
0000984826,6,0.2243,0.5654,-0.1403,0.7813,-363,140,310,-2035,371,799,68,-40,-75,6.1186,71.1404,36.4133,1,1
0000984847,6,0.2243,0.5654,-0.1428,0.7808,-361,139,310,-2027,275,819,52,7,-75,5.4830,71.2484,35.9883,1,1
0000984868,6,0.2240,0.5664,-0.1446,0.7798,-362,136,306,-2027,331,675,21,52,-74,5.0925,71.4649,35.7241,1,1
0000984889,6,0.2233,0.5683,-0.1458,0.7784,-369,130,302,-1999,399,595,-5,84,-73,4.9260,71.7781,35.5734,1,1
0000984910,6,0.2222,0.5715,-0.1470,0.7762,-374,124,295,-1991,431,515,4,107,-83,4.8496,72.2613,35.4915,1,1
0000984931,6,0.2215,0.5743,-0.1484,0.7740,-374,124,295,-1991,439,443,15,113,-95,4.7620,72.6979,35.4499,1,1
0000984952,6,0.2206,0.5772,-0.1500,0.7718,-384,118,288,-1963,419,383,3,114,-107,4.5753,73.1657,35.2961,1,1
0000984973,6,0.2195,0.5801,-0.1517,0.7696,-390,111,281,-1987,351,399,14,105,-112,4.2977,73.6309,35.0586,1,1
0000984994,6,0.2183,0.5833,-0.1543,0.7670,-395,103,274,-1995,359,375,24,94,-116,3.7749,74.1909,34.6264,1,1
0000985015,6,0.2177,0.5856,-0.1567,0.7649,-401,99,269,-1963,251,447,44,89,-109,3.3032,74.6110,34.2910,1,1
0000985036,6,0.2168,0.5880,-0.1585,0.7629,-401,99,269,-2007,211,451,-10,93,-100,2.8947,75.0178,33.9482,1,1
0000985057,6,0.2146,0.5908,-0.1589,0.7614,-405,90,261,-1991,227,443,-83,100,-89,2.6199,75.4245,33.5030,1,1
0000985078,6,0.2115,0.5938,-0.1584,0.7599,-412,81,255,-2011,223,479,-116,111,-81,2.4517,75.8336,33.0165,1,1
0000985099,6,0.2075,0.5980,-0.1571,0.7580,-418,70,244,-2023,187,507,-128,127,-74,2.4353,76.3752,32.5386,1,1
0000985120,6,0.2040,0.6018,-0.1555,0.7563,-427,61,234,-2055,191,419,-156,144,-71,2.5961,76.8475,32.2495,1,1
0000985141,6,0.2002,0.6059,-0.1534,0.7545,-427,61,234,-2059,191,387,-168,154,-65,2.9055,77.3490,32.0505,1,1
0000985162,6,0.1963,0.6101,-0.1510,0.7526,-434,51,219,-2039,247,303,-178,159,-61,3.3358,77.8595,31.9367,1,1
0000985183,6,0.1925,0.6142,-0.1485,0.7507,-443,39,206,-2047,263,191,-164,150,-58,3.8067,78.3606,31.8613,1,1
0000985204,6,0.1884,0.6189,-0.1460,0.7484,-450,33,194,-2063,195,191,-128,136,-53,4.3707,78.9404,31.8559,1,1
0000985225,6,0.1858,0.6221,-0.1445,0.7467,-457,25,184,-2111,55,287,-104,124,-47,4.7787,79.3545,31.9194,1,1
0000985246,6,0.1834,0.6252,-0.1429,0.7450,-463,20,173,-2151,-7,359,-126,120,-37,5.2518,79.7376,32.0400,1,1
0000985267,6,0.1801,0.6284,-0.1402,0.7437,-463,20,173,-2195,75,299,-185,126,-23,5.9823,80.1027,32.2617,1,1
0000985288,6,0.1762,0.6317,-0.1365,0.7425,-469,11,162,-2231,155,235,-215,120,-16,6.8905,80.4570,32.5300,1,1
0000985309,6,0.1706,0.6353,-0.1321,0.7415,-475,1,153,-2167,187,95,-207,86,-44,7.5432,80.8364,32.3403,1,1
0000985330,6,0.1673,0.6368,-0.1308,0.7412,-478,-5,153,-1767,279,695,-57,6,-52,7.0800,81.0285,31.4981,1,1
0000985351,6,0.1666,0.6363,-0.1317,0.7417,-483,-10,158,-1819,111,643,1,-48,-25,6.1231,80.9923,30.5547,1,1
0000985372,6,0.1652,0.6347,-0.1316,0.7433,-483,-10,158,-1851,255,695,-71,-122,-7,5.0486,80.7744,29.3546,1,1
0000985393,6,0.1632,0.6309,-0.1313,0.7470,-482,-13,168,-1647,611,899,-58,-283,18,3.3107,80.2304,27.4321,1,1
0000985414,6,0.1614,0.6220,-0.1318,0.7548,-481,-12,191,-1835,307,775,10,-422,19,0.5197,78.9619,24.5653,1,1
0000985435,6,0.1606,0.6124,-0.1344,0.7623,-475,-9,221,-1699,47,923,28,-486,6,357.8111,77.6431,22.0329,1,1
0000985456,6,0.1581,0.6023,-0.1351,0.7707,-472,-10,252,-1763,99,699,-104,-498,37,355.7077,76.1931,19.8216,1,1
0000985477,6,0.1538,0.5925,-0.1338,0.7793,-468,-10,279,-1751,279,583,-172,-483,44,354.2765,74.7332,17.9532,1,1
0000985498,6,0.1503,0.5834,-0.1328,0.7870,-468,-10,279,-1887,271,467,-47,-399,39,353.2593,73.3802,16.6019,1,1
0000985519,6,0.1499,0.5746,-0.1336,0.7934,-470,-6,301,-2019,183,455,72,-250,35,352.5394,72.1424,15.9601,1,1
0000985540,6,0.1528,0.5715,-0.1353,0.7949,-476,3,309,-2187,139,431,146,-33,39,352.5805,71.7650,16.3904,1,1
0000985561,6,0.1563,0.5733,-0.1357,0.7928,-495,12,293,-2575,-27,-335,93,202,43,353.2964,72.0643,17.4320,1,1
0000985582,6,0.1598,0.5807,-0.1349,0.7868,-524,17,256,-2455,-259,7,68,526,-5,354.7119,73.1152,19.0328,1,1
0000985603,6,0.1625,0.5912,-0.1333,0.7786,-524,17,256,-2699,83,435,-3,354,37,356.6795,74.5875,21.0526,1,1
0000985624,6,0.1639,0.5961,-0.1316,0.7749,-540,18,235,-2847,-263,-47,16,89,0,358.0540,75.2434,22.3793,1,1
0000985645,6,0.1656,0.5986,-0.1323,0.7725,-550,19,227,-1579,415,167,108,152,6,358.5782,75.6183,23.0900,1,1
0000985666,6,0.1706,0.6000,-0.1348,0.7699,-554,28,221,-1787,503,43,283,62,10,359.3484,75.8983,24.4866,1,1
0000985687,6,0.1786,0.5985,-0.1409,0.7681,-556,41,231,-2019,147,283,413,-42,1,359.3595,75.8873,25.6805,1,1
0000985708,6,0.1853,0.5963,-0.1462,0.7673,-556,41,231,-2087,-7,319,136,-50,22,359.2036,75.7471,26.5355,1,1
0000985729,6,0.1858,0.5948,-0.1457,0.7684,-554,47,231,-1991,591,387,-84,-50,39,359.3177,75.5282,26.6550,1,1
0000985750,6,0.1858,0.5936,-0.1448,0.7695,-553,48,236,-1995,387,587,31,-53,42,359.4762,75.3241,26.7393,1,1
0000985771,6,0.1875,0.5924,-0.1453,0.7700,-549,53,240,-2067,199,587,68,-26,29,359.6446,75.1671,27.1055,1,1
0000985792,6,0.1894,0.5919,-0.1458,0.7697,-551,59,238,-2051,123,759,68,23,36,359.9492,75.1205,27.6099,1,1
0000985813,6,0.1911,0.5923,-0.1455,0.7691,-555,62,234,-2079,83,763,-19,70,48,0.5838,75.1662,28.3562,1,1
0000985834,6,0.1904,0.5948,-0.1418,0.7680,-555,62,234,-2047,123,659,-150,123,64,2.0029,75.3854,29.4019,1,1
0000985855,6,0.1879,0.5981,-0.1365,0.7670,-561,61,223,-2063,231,507,-218,148,68,3.5688,75.6557,30.3031,1,1
0000985876,6,0.1856,0.6017,-0.1311,0.7658,-572,59,213,-2003,151,375,-178,161,72,5.3224,75.9552,31.4019,1,1
0000985897,6,0.1844,0.6049,-0.1267,0.7642,-579,60,201,-2035,391,343,-86,146,62,7.1045,76.2435,32.7108,1,1
0000985918,6,0.1856,0.6083,-0.1240,0.7617,-590,64,191,-2043,531,295,52,135,46,9.1305,76.5776,34.5987,1,1
0000985939,6,0.1893,0.6102,-0.1249,0.7590,-590,64,191,-1995,395,455,169,126,25,10.4996,76.8309,36.3486,1,1
0000985960,6,0.1929,0.6125,-0.1262,0.7562,-596,71,182,-2003,275,335,104,144,8,11.7653,77.1372,38.0097,1,1
0000985981,6,0.1937,0.6154,-0.1256,0.7537,-606,71,172,-2023,335,47,-37,145,4,13.1087,77.4809,39.3633,1,1
0000986002,6,0.1927,0.6180,-0.1236,0.7521,-609,71,162,-2079,223,63,-83,95,4,14.2891,77.7545,40.2907,1,1
0000986023,6,0.1907,0.6204,-0.1211,0.7510,-614,68,158,-1987,323,55,-107,61,0,15.2444,77.9820,40.8629,1,1
0000986044,6,0.1892,0.6214,-0.1194,0.7509,-614,67,155,-1971,379,103,-59,15,3,15.6306,78.0594,40.9785,1,1
0000986065,6,0.1891,0.6213,-0.1192,0.7511,-614,67,155,-2047,231,259,10,-16,7,15.6264,78.0339,40.9467,1,1
0000986086,6,0.1892,0.6207,-0.1192,0.7515,-614,67,159,-2079,235,315,-11,-28,11,15.5016,77.9576,40.8294,1,1
0000986107,6,0.1887,0.6202,-0.1187,0.7521,-613,67,159,-2047,299,355,-34,-23,7,15.3402,77.8723,40.5917,1,1
0000986128,6,0.1880,0.6198,-0.1180,0.7527,-611,66,160,-2047,275,383,-25,-12,2,15.1949,77.8080,40.3284,1,1
0000986149,6,0.1876,0.6198,-0.1177,0.7529,-612,66,160,-2043,271,427,-20,0,-1,15.1447,77.7932,40.2223,1,1
0000986170,6,0.1869,0.6201,-0.1171,0.7529,-612,66,160,-2043,255,415,-43,19,-2,15.2286,77.8251,40.1989,1,1
0000986191,6,0.1857,0.6209,-0.1160,0.7527,-613,64,158,-2039,287,371,-73,39,-2,15.4920,77.9041,40.2680,1,1
0000986212,6,0.1841,0.6222,-0.1144,0.7523,-616,63,155,-2051,291,343,-85,56,-1,15.9294,78.0219,40.4363,1,1
0000986233,6,0.1822,0.6240,-0.1124,0.7515,-616,59,148,-2051,271,291,-79,63,-4,16.6100,78.2015,40.7907,1,1
0000986254,6,0.1807,0.6256,-0.1109,0.7508,-621,57,145,-2043,283,227,-77,62,-7,17.1608,78.3616,41.0905,1,1
0000986275,6,0.1793,0.6269,-0.1096,0.7502,-622,55,137,-2063,259,243,-69,55,-8,17.6493,78.5077,41.3490,1,1
0000986296,6,0.1779,0.6283,-0.1084,0.7496,-622,55,137,-2035,235,227,-71,51,-12,18.0634,78.6541,41.5449,1,1
0000986317,6,0.1764,0.6294,-0.1073,0.7492,-624,52,134,-2031,291,223,-61,30,-9,18.3557,78.7722,41.6114,1,1
0000986338,6,0.1752,0.6302,-0.1064,0.7489,-625,50,131,-2055,295,227,-27,18,-8,18.5597,78.8643,41.6414,1,1
0000986359,6,0.1749,0.6306,-0.1063,0.7487,-625,49,132,-2035,255,287,-7,15,-8,18.6318,78.9184,41.6750,1,1
0000986380,6,0.1745,0.6310,-0.1061,0.7484,-625,48,130,-2055,275,287,-21,15,-8,18.6934,78.9693,41.6921,1,1
0000986401,6,0.1739,0.6314,-0.1058,0.7483,-625,48,130,-2039,275,259,-25,17,-10,18.7535,79.0266,41.6721,1,1
0000986422,6,0.1734,0.6318,-0.1057,0.7480,-625,46,128,-2051,267,259,-2,13,-13,18.7900,79.0870,41.6639,1,1
0000986443,6,0.1733,0.6322,-0.1061,0.7477,-628,46,127,-2059,251,271,8,10,-13,18.7498,79.1562,41.6399,1,1
0000986464,6,0.1732,0.6325,-0.1064,0.7474,-626,45,126,-2047,255,271,5,11,-15,18.6879,79.2107,41.6020,1,1
0000986485,6,0.1730,0.6328,-0.1067,0.7472,-628,43,126,-2039,255,247,-6,11,-14,18.6332,79.2685,41.5437,1,1
0000986506,6,0.1726,0.6330,-0.1067,0.7471,-628,43,126,-2047,231,247,-10,7,-11,18.5870,79.3152,41.4663,1,1
0000986527,6,0.1722,0.6332,-0.1067,0.7470,-626,43,124,-2051,235,239,-11,1,-7,18.5288,79.3449,41.3751,1,1
0000986548,6,0.1719,0.6331,-0.1068,0.7471,-628,42,123,-2055,247,243,4,-15,-6,18.3281,79.3440,41.1565,1,1
0000986569,6,0.1722,0.6327,-0.1074,0.7473,-625,41,125,-2047,211,291,34,-18,-7,18.0441,79.3155,40.9533,1,1
0000986590,6,0.1726,0.6324,-0.1080,0.7474,-626,41,128,-2055,231,287,17,-12,-5,17.8067,79.2949,40.8024,1,1
0000986611,6,0.1727,0.6322,-0.1083,0.7476,-625,42,128,-2043,263,291,12,-10,-3,17.6295,79.2793,40.6521,1,1
0000986632,6,0.1730,0.6319,-0.1088,0.7476,-625,42,128,-2055,263,283,29,-9,-3,17.4754,79.2618,40.5596,1,1
0000986653,6,0.1736,0.6317,-0.1096,0.7476,-625,41,130,-2071,243,307,32,-3,-5,17.3226,79.2557,40.5331,1,1
0000986674,6,0.1740,0.6316,-0.1101,0.7474,-625,43,130,-2071,239,323,13,5,-7,17.2344,79.2721,40.5153,1,1
0000986695,6,0.1737,0.6320,-0.1101,0.7472,-624,39,128,-2055,247,267,-23,17,-9,17.2678,79.3211,40.5196,1,1
0000986716,6,0.1729,0.6325,-0.1096,0.7470,-626,40,128,-2047,259,239,-33,16,-8,17.3449,79.3829,40.4934,1,1
0000986737,6,0.1722,0.6329,-0.1092,0.7469,-626,40,128,-2063,243,247,-30,16,-10,17.4087,79.4379,40.4602,1,1
0000986758,6,0.1712,0.6336,-0.1087,0.7467,-626,37,125,-2043,247,243,-32,16,-12,17.4515,79.5159,40.3800,1,1
0000986779,6,0.1705,0.6339,-0.1084,0.7465,-627,36,122,-2047,239,227,-23,8,-9,17.4433,79.5657,40.2884,1,1
0000986800,6,0.1700,0.6341,-0.1083,0.7465,-625,35,121,-2055,223,251,-17,1,-9,17.3680,79.5936,40.1571,1,1
0000986821,6,0.1694,0.6342,-0.1081,0.7466,-626,33,124,-2047,227,251,-23,-2,-7,17.2548,79.6099,39.9813,1,1
0000986842,6,0.1687,0.6342,-0.1079,0.7468,-624,31,122,-2055,227,271,-15,-6,-7,17.0728,79.6139,39.7246,1,1
0000986863,6,0.1684,0.6341,-0.1078,0.7470,-624,31,122,-2055,215,271,-13,-8,-5,16.9006,79.6076,39.5167,1,1
0000986884,6,0.1679,0.6340,-0.1077,0.7472,-626,31,124,-2051,215,259,-14,-9,-3,16.7498,79.5971,39.3223,1,1
0000986905,6,0.1677,0.6338,-0.1077,0.7474,-624,31,123,-2051,215,263,-2,-13,-1,16.5915,79.5738,39.1451,1,1
0000986926,6,0.1677,0.6335,-0.1078,0.7476,-624,31,126,-2051,211,291,4,-14,-1,16.4238,79.5437,38.9894,1,1
0000986947,6,0.1677,0.6332,-0.1079,0.7479,-624,31,126,-2051,227,295,-4,-12,1,16.2646,79.5026,38.8312,1,1
0000986968,6,0.1676,0.6330,-0.1078,0.7481,-624,31,126,-2059,231,283,-7,-8,2,16.1850,79.4765,38.7322,1,1
0000986989,6,0.1674,0.6329,-0.1076,0.7482,-623,31,127,-2051,235,255,-6,-6,3,16.1536,79.4536,38.6796,1,1
0000987010,6,0.1674,0.6327,-0.1075,0.7484,-623,32,128,-2063,235,251,0,-10,5,16.1254,79.4235,38.6419,1,1
0000987031,6,0.1676,0.6324,-0.1076,0.7486,-621,30,128,-2047,235,259,10,-16,4,16.0474,79.3834,38.5848,1,1
0000987052,6,0.1680,0.6318,-0.1078,0.7490,-622,33,130,-2051,243,263,17,-20,5,15.8923,79.3168,38.4848,1,1
0000987073,6,0.1684,0.6313,-0.1082,0.7492,-622,33,130,-2051,239,279,22,-23,6,15.7486,79.2515,38.4070,1,1
0000987094,6,0.1689,0.6307,-0.1085,0.7496,-618,33,132,-2059,227,279,21,-24,6,15.5920,79.1829,38.3208,1,1
0000987115,6,0.1694,0.6301,-0.1088,0.7499,-621,34,133,-2055,227,271,18,-26,8,15.4332,79.1074,38.2241,1,1
0000987136,6,0.1698,0.6295,-0.1090,0.7503,-618,36,134,-2051,251,255,15,-29,8,15.2716,79.0261,38.1148,1,1
0000987157,6,0.1703,0.6286,-0.1094,0.7509,-617,36,139,-2043,255,275,21,-34,7,15.0189,78.9126,37.9381,1,1
0000987178,6,0.1707,0.6278,-0.1098,0.7514,-614,38,139,-2043,235,315,18,-34,5,14.7608,78.8173,37.7506,1,1
0000987199,6,0.1708,0.6271,-0.1099,0.7520,-614,38,139,-2035,239,319,-3,-32,6,14.5084,78.7257,37.5191,1,1
0000987220,6,0.1706,0.6265,-0.1097,0.7526,-613,38,144,-2043,243,319,-15,-30,8,14.3123,78.6364,37.2877,1,1
0000987241,6,0.1704,0.6259,-0.1094,0.7531,-612,37,146,-2043,243,315,-14,-27,8,14.1539,78.5514,37.0856,1,1
0000987262,6,0.1702,0.6252,-0.1092,0.7538,-611,39,148,-2039,247,315,1,-32,7,13.9246,78.4426,36.8335,1,1
0000987283,6,0.1706,0.6244,-0.1095,0.7543,-611,41,150,-2043,235,327,24,-34,7,13.7095,78.3478,36.6714,1,1
0000987304,6,0.1712,0.6236,-0.1100,0.7548,-611,41,150,-2031,251,343,37,-36,7,13.4744,78.2462,36.5422,1,1
0000987325,6,0.1721,0.6226,-0.1107,0.7553,-608,42,155,-2035,255,315,41,-42,8,13.2279,78.1357,36.4194,1,1
0000987346,6,0.1731,0.6216,-0.1115,0.7558,-609,44,159,-2055,223,327,53,-38,11,12.9802,78.0124,36.3280,1,1
0000987367,6,0.1744,0.6204,-0.1124,0.7563,-606,46,160,-2071,215,303,42,-34,12,12.7797,77.8744,36.3174,1,1
0000987388,6,0.1753,0.6195,-0.1129,0.7568,-606,48,164,-2027,267,259,36,-40,14,12.6091,77.7598,36.2604,1,1
0000987409,6,0.1763,0.6183,-0.1136,0.7574,-602,51,168,-2035,259,295,54,-55,16,12.3780,77.6103,36.1754,1,1
0000987430,6,0.1776,0.6168,-0.1145,0.7582,-602,51,168,-2039,227,307,56,-62,18,12.0740,77.4302,36.0595,1,1
0000987451,6,0.1784,0.6154,-0.1150,0.7591,-601,53,176,-2027,239,315,14,-66,21,11.7550,77.2402,35.8590,1,1
0000987472,6,0.1788,0.6134,-0.1149,0.7606,-597,57,178,-2039,263,363,0,-73,28,11.4050,76.9666,35.5383,1,1
0000987493,6,0.1789,0.6119,-0.1145,0.7619,-593,58,186,-2031,255,363,-13,-70,28,11.1554,76.7400,35.2701,1,1
0000987514,6,0.1787,0.6104,-0.1139,0.7632,-591,60,189,-2027,267,347,-25,-71,30,10.9422,76.5144,34.9953,1,1
0000987535,6,0.1784,0.6088,-0.1132,0.7647,-591,60,189,-2027,283,331,-25,-76,32,10.7292,76.2756,34.7056,1,1
0000987556,6,0.1783,0.6071,-0.1126,0.7661,-587,61,198,-2015,299,311,-19,-82,30,10.4888,76.0228,34.4042,1,1
0000987577,6,0.1782,0.6047,-0.1121,0.7682,-584,63,202,-2003,299,311,-11,-99,29,10.0661,75.6719,33.9435,1,1
0000987598,6,0.1780,0.6023,-0.1118,0.7701,-577,65,209,-2007,303,271,-15,-113,28,9.6251,75.3484,33.4719,1,1
0000987619,6,0.1779,0.5998,-0.1116,0.7721,-572,68,221,-2011,255,331,-10,-129,28,9.1153,74.9931,32.9444,1,1
0000987640,6,0.1774,0.5968,-0.1112,0.7746,-563,70,230,-2007,271,271,-42,-151,33,8.5482,74.5817,32.3175,1,1
0000987661,6,0.1769,0.5935,-0.1108,0.7773,-563,70,230,-1979,379,387,-11,-164,34,7.9320,74.1222,31.6326,1,1
0000987682,6,0.1782,0.5887,-0.1117,0.7805,-556,74,244,-1935,327,483,78,-175,38,7.1784,73.4937,31.0837,1,1
0000987703,6,0.1803,0.5844,-0.1135,0.7830,-543,80,255,-2031,235,491,113,-188,28,6.4649,72.9617,30.7132,1,1
0000987724,6,0.1826,0.5800,-0.1156,0.7854,-535,85,272,-1963,407,523,121,-189,28,5.7346,72.4234,30.3785,1,1
0000987745,6,0.1850,0.5755,-0.1181,0.7878,-523,94,284,-1931,599,431,163,-195,10,4.9702,71.8889,30.0420,1,1
0000987766,6,0.1888,0.5707,-0.1220,0.7898,-523,94,284,-1907,327,635,231,-202,3,4.0863,71.3516,29.8150,1,1
0000987787,6,0.1935,0.5646,-0.1270,0.7923,-511,101,299,-1955,259,687,165,-193,4,2.9863,70.6911,29.5619,1,1
0000987808,6,0.1953,0.5603,-0.1296,0.7945,-499,107,310,-1931,339,627,97,-180,6,2.1978,70.1906,29.1713,1,1
0000987829,6,0.1970,0.5561,-0.1320,0.7965,-487,111,321,-1971,427,667,119,-175,-3,1.4486,69.7164,28.7911,1,1
0000987850,6,0.1993,0.5521,-0.1353,0.7982,-477,119,331,-1963,331,919,162,-153,-19,0.6474,69.2862,28.4828,1,1
0000987871,6,0.2016,0.5488,-0.1386,0.7994,-477,119,331,-2031,179,1071,96,-97,-13,359.9529,68.9458,28.2773,1,1
0000987892,6,0.2024,0.5470,-0.1401,0.8001,-471,121,336,-2011,215,1139,6,-24,-4,359.5628,68.7580,28.0948,1,1
0000987913,6,0.2020,0.5475,-0.1397,0.8000,-471,120,336,-1991,243,959,-32,45,5,359.6344,68.8082,28.0991,1,1
0000987934,6,0.2015,0.5491,-0.1384,0.7992,-475,119,332,-1971,363,679,-50,83,14,359.9919,68.9781,28.2913,1,1
0000987955,6,0.2011,0.5512,-0.1370,0.7981,-483,118,327,-1931,415,675,-24,110,7,0.4922,69.2234,28.6300,1,1
0000987976,6,0.2017,0.5543,-0.1362,0.7959,-489,120,318,-1931,355,639,24,119,-2,1.1233,69.6054,29.2173,1,1
0000987997,6,0.2025,0.5568,-0.1360,0.7940,-489,120,318,-1951,311,491,10,120,-7,1.5865,69.9332,29.7258,1,1
0000988018,6,0.2023,0.5595,-0.1352,0.7923,-500,117,312,-1943,431,495,-35,118,-8,2.0638,70.2638,30.1018,1,1
0000988039,6,0.2021,0.5619,-0.1346,0.7908,-506,116,304,-1987,431,463,-6,98,-20,2.4467,70.5712,30.4021,1,1
0000988060,6,0.2020,0.5638,-0.1348,0.7894,-513,112,300,-1987,311,423,-20,72,-37,2.6024,70.8385,30.5581,1,1
0000988081,6,0.1997,0.5661,-0.1342,0.7884,-517,106,296,-1951,459,303,-114,57,-45,2.5768,71.1390,30.2748,1,1
0000988102,6,0.1960,0.5677,-0.1329,0.7884,-517,106,296,-1951,443,279,-157,23,-57,2.3210,71.3182,29.5912,1,1
0000988123,6,0.1913,0.5686,-0.1317,0.7891,-519,93,295,-1943,419,127,-189,-26,-73,1.7570,71.4041,28.5220,1,1
0000988144,6,0.1854,0.5684,-0.1305,0.7909,-514,81,298,-1927,747,-91,-232,-96,-91,0.7705,71.3443,26.9348,1,1
0000988165,6,0.1780,0.5666,-0.1298,0.7940,-504,63,306,-1867,727,-259,-219,-218,-125,359.2282,71.0756,24.7190,1,1
0000988186,6,0.1693,0.5610,-0.1310,0.7997,-485,46,325,-1939,151,-87,-212,-329,-132,356.6818,70.3188,21.5716,1,1
0000988207,6,0.1588,0.5546,-0.1308,0.8063,-452,21,346,-1995,267,63,-394,-425,-146,354.3568,69.3703,18.3838,1,1
0000988228,6,0.1461,0.5461,-0.1300,0.8146,-452,21,346,-2019,207,203,-399,-525,-154,351.9657,68.0776,14.9080,1,1
0000988249,6,0.1343,0.5355,-0.1305,0.8235,-414,-3,376,-2271,23,667,-319,-598,-156,349.7280,66.4969,11.7740,1,1
0000988270,6,0.1238,0.5234,-0.1319,0.8327,-363,-23,405,-2727,-331,947,-284,-630,-138,347.8078,64.7243,9.1664,1,1
0000988291,6,0.1096,0.5078,-0.1323,0.8442,-312,-46,438,-3059,-355,807,-381,-632,-117,346.0020,62.4150,6.2915,1,1
0000988312,6,0.0963,0.4951,-0.1315,0.8534,-250,-77,468,-2963,-75,647,-413,-645,-138,344.8119,60.5079,3.9893,1,1
0000988333,6,0.0827,0.4820,-0.1317,0.8623,-250,-77,468,-2847,139,547,-397,-675,-193,343.6032,58.5388,1.7301,1,1
0000988354,6,0.0680,0.4682,-0.1336,0.8708,-179,-112,504,-2671,295,587,-403,-690,-271,342.1897,56.4697,-0.6913,1,1
0000988375,6,0.0531,0.4543,-0.1367,0.8787,-96,-152,540,-2279,475,735,-359,-661,-285,340.7625,54.3837,-3.0315,1,1
0000988396,6,0.0366,0.4373,-0.1405,0.8875,-6,-191,574,-1599,635,959,-293,-638,-248,339.3915,51.8548,-5.3775,1,1
0000988417,6,0.0269,0.4238,-0.1439,0.8939,83,-212,605,-1107,667,1971,-125,-595,-203,338.6402,49.9355,-6.5838,1,1
0000988438,6,0.0239,0.4105,-0.1484,0.8994,83,-212,605,-1635,11,1143,82,-505,-136,338.2100,48.2003,-6.8017,1,1
0000988459,6,0.0226,0.4022,-0.1513,0.9027,166,-215,637,-1287,-219,927,18,-239,-66,337.9882,47.1344,-6.8248,1,1
0000988480,6,0.0212,0.4007,-0.1517,0.9033,220,-220,656,-1171,-415,519,-121,94,5,337.8879,46.9183,-7.0100,1,1
0000988501,6,0.0171,0.4082,-0.1486,0.9006,256,-232,660,-1127,-91,531,-200,331,29,337.8288,47.7555,-7.7336,1,1
0000988522,6,0.0163,0.4198,-0.1463,0.8956,268,-237,665,-1175,71,471,-56,547,32,337.6762,49.1822,-8.2280,1,1
0000988543,6,0.0215,0.4353,-0.1461,0.8881,267,-219,672,-1311,79,487,180,726,37,337.3981,51.2118,-8.1613,1,1
0000988564,6,0.0329,0.4536,-0.1481,0.8782,267,-219,672,-1547,-7,687,454,930,56,337.0715,53.7440,-7.4486,1,1
0000988585,6,0.0497,0.4744,-0.1521,0.8656,250,-184,687,-1763,-123,871,615,1091,66,336.7647,56.7658,-6.1048,1,1
0000988606,6,0.0749,0.5039,-0.1580,0.8459,217,-131,701,-1991,-239,1151,640,1220,75,336.5417,61.1813,-3.8762,1,1
0000988627,6,0.0946,0.5299,-0.1612,0.8272,167,-76,711,-2135,-99,1343,545,1334,100,336.7015,65.1194,-1.9521,1,1
0000988648,6,0.1134,0.5574,-0.1617,0.8064,98,-21,712,-2247,95,1367,492,1402,159,337.6233,69.3358,0.4333,1,1
0000988669,6,0.1330,0.5831,-0.1613,0.7850,98,-21,712,-2087,179,1539,547,1303,189,339.8894,73.4204,4.1652,1,1
0000988690,6,0.1523,0.6045,-0.1623,0.7649,27,39,713,-1971,-51,1767,533,1069,138,343.4820,76.9539,9.3626,1,1
0000988711,6,0.1706,0.6254,-0.1623,0.7440,-31,95,708,-1635,-95,1551,272,837,135,350.3599,80.3561,17.6842,1,1
0000988732,6,0.1782,0.6367,-0.1588,0.7332,-70,129,707,-1303,127,1687,73,516,142,357.5563,82.0205,25.1946,1,1
0000988753,6,0.1829,0.6413,-0.1548,0.7289,-80,154,717,-1079,-7,1895,16,161,181,3.9413,82.5455,31.6299,1,1
0000988774,6,0.1849,0.6381,-0.1518,0.7318,-46,164,738,-2287,-1051,1047,-37,-287,150,5.6900,81.9369,33.3065,1,1
0000988795,6,0.1797,0.6293,-0.1498,0.7411,-46,164,738,-3523,-227,-739,-287,-319,-11,1.4528,80.6081,28.4919,1,1
0000988816,6,0.1795,0.6241,-0.1507,0.7453,-21,156,761,-1583,647,903,368,-273,56,359.8147,79.8894,26.9295,1,1
0000988837,6,0.1936,0.6135,-0.1636,0.7479,10,220,788,-1875,-307,1375,777,-390,52,357.8820,78.8197,27.2904,1,1
0000988858,6,0.2027,0.6045,-0.1711,0.7511,35,257,810,-1951,43,863,283,-264,116,356.7537,77.8279,27.5817,1,1
0000988879,6,0.2055,0.5992,-0.1710,0.7546,53,260,821,-2131,295,583,-148,-135,131,356.9939,77.0760,28.0736,1,1
0000988900,6,0.2019,0.5972,-0.1637,0.7588,53,260,821,-2175,251,263,-244,-79,135,358.2003,76.5081,28.3862,1,1
0000988921,6,0.2014,0.5949,-0.1605,0.7614,62,249,833,-1943,867,251,44,-120,92,358.8544,76.0724,28.7383,1,1
0000988942,6,0.2093,0.5899,-0.1661,0.7619,76,275,841,-1967,203,655,562,-161,39,358.5811,75.5921,29.6223,1,1
0000988963,6,0.2218,0.5838,-0.1761,0.7609,91,326,845,-2039,-215,763,572,-138,26,357.9785,75.1414,30.9405,1,1
0000988984,6,0.2283,0.5801,-0.1805,0.7608,98,342,849,-2019,107,487,49,-59,83,357.8660,74.8128,31.7713,1,1
0000989005,6,0.2290,0.5782,-0.1780,0.7626,106,342,857,-2015,679,279,-49,-54,92,358.5735,74.4557,32.3515,1,1
0000989026,6,0.2311,0.5761,-0.1778,0.7636,106,342,857,-2003,607,375,131,-81,60,358.8786,74.1531,32.8219,1,1
0000989047,6,0.2351,0.5731,-0.1803,0.7640,112,359,861,-2011,299,499,187,-87,38,358.7636,73.8542,33.2798,1,1
0000989068,6,0.2375,0.5708,-0.1818,0.7647,123,372,864,-2043,379,387,55,-76,32,358.5962,73.5930,33.4514,1,1
0000989089,6,0.2376,0.5689,-0.1818,0.7660,130,373,870,-2011,511,355,0,-91,17,358.3744,73.3432,33.2521,1,1
0000989110,6,0.2377,0.5662,-0.1828,0.7678,142,381,874,-1983,355,435,44,-109,1,357.7522,73.0037,32.7434,1,1
0000989131,6,0.2380,0.5637,-0.1840,0.7692,142,381,874,-1995,263,519,23,-109,0,357.1356,72.7199,32.2717,1,1
0000989152,6,0.2374,0.5616,-0.1846,0.7708,152,384,881,-1979,303,615,-11,-100,2,356.5778,72.4490,31.7301,1,1
0000989173,6,0.2367,0.5599,-0.1848,0.7722,161,386,883,-1975,227,723,-25,-74,12,356.1947,72.2147,31.3098,1,1
0000989194,6,0.2355,0.5590,-0.1838,0.7735,166,382,889,-1943,247,687,-83,-36,24,356.0753,72.0479,31.0161,1,1
0000989215,6,0.2329,0.5591,-0.1808,0.7749,169,372,891,-1975,399,547,-136,-2,36,356.3290,71.9378,30.7889,1,1
0000989236,6,0.2309,0.5595,-0.1783,0.7757,169,372,891,-1983,423,563,-103,6,28,356.6268,71.8957,30.7080,1,1
0000989257,6,0.2295,0.5601,-0.1765,0.7762,169,366,892,-2051,299,663,-92,19,19,356.8803,71.8940,30.6786,1,1
0000989278,6,0.2272,0.5613,-0.1741,0.7766,166,356,891,-2035,251,675,-158,44,10,357.1640,71.9610,30.5531,1,1
0000989299,6,0.2233,0.5634,-0.1704,0.7770,162,336,889,-1987,311,527,-234,62,12,357.5383,72.0942,30.2784,1,1
0000989320,6,0.2179,0.5660,-0.1654,0.7777,157,319,891,-1995,379,403,-222,50,7,358.0025,72.2632,29.8437,1,1
0000989341,6,0.2140,0.5677,-0.1622,0.7782,154,302,889,-2003,395,423,-179,29,-1,358.2156,72.3599,29.4476,1,1
0000989362,6,0.2107,0.5688,-0.1598,0.7788,154,302,889,-1995,331,503,-154,14,-12,358.2439,72.4233,28.9883,1,1
0000989383,6,0.2069,0.5699,-0.1575,0.7795,151,287,891,-2035,331,583,-194,15,-20,358.1601,72.4848,28.3789,1,1
0000989404,6,0.2016,0.5715,-0.1542,0.7803,150,267,887,-2003,423,511,-281,27,-35,358.0234,72.5831,27.5142,1,1
0000989425,6,0.1933,0.5740,-0.1495,0.7815,147,239,888,-1979,503,399,-305,28,-44,357.7318,72.7514,26.1117,1,1
0000989446,6,0.1864,0.5759,-0.1458,0.7825,145,215,885,-1967,395,223,-291,11,-55,357.3659,72.8737,24.8507,1,1
0000989467,6,0.1798,0.5769,-0.1430,0.7838,145,215,885,-1959,271,151,-257,-30,-59,356.7613,72.9085,23.4532,1,1
0000989488,6,0.1737,0.5768,-0.1409,0.7857,147,193,889,-2007,343,151,-207,-102,-67,355.9292,72.8039,21.9347,1,1
0000989509,6,0.1686,0.5753,-0.1402,0.7880,159,182,891,-2027,227,363,-143,-141,-69,354.8508,72.5372,20.3725,1,1
0000989530,6,0.1633,0.5718,-0.1406,0.7916,176,174,900,-2067,23,499,-134,-178,-66,353.3428,72.0279,18.4699,1,1
0000989551,6,0.1580,0.5688,-0.1397,0.7950,196,164,909,-2095,-15,615,-213,-193,-39,352.3025,71.5314,16.9280,1,1
0000989572,6,0.1512,0.5658,-0.1368,0.7990,216,143,919,-2159,-67,687,-311,-191,-5,351.6100,70.9840,15.4380,1,1
0000989593,6,0.1429,0.5631,-0.1314,0.8033,216,143,919,-2127,351,779,-440,-169,70,351.3770,70.4207,14.0782,1,1
0000989614,6,0.1340,0.5611,-0.1223,0.8076,230,112,929,-2239,31,923,-524,-110,179,352.0971,69.9048,13.3093,1,1
0000989635,6,0.1212,0.5600,-0.1068,0.8126,242,71,931,-2207,-87,1039,-666,-76,185,353.8241,69.3949,12.6917,1,1
0000989656,6,0.1080,0.5605,-0.0915,0.8160,243,17,931,-2159,-287,1063,-779,-18,216,355.4332,69.1368,11.9259,1,1
0000989677,6,0.0935,0.5623,-0.0743,0.8183,235,-48,923,-2035,-219,991,-851,59,227,357.3560,69.0856,11.2152,1,0
0000989698,6,0.0780,0.5655,-0.0561,0.8191,235,-48,923,-1939,-39,923,-866,123,225,359.4036,69.2598,10.4732,1,0
0000989719,6,0.0636,0.5693,-0.0390,0.8188,214,-116,908,-1795,63,915,-749,160,193,1.4042,69.5782,9.8658,1,0
0000989740,6,0.0499,0.5746,-0.0225,0.8166,191,-167,890,-1675,91,971,-546,203,136,3.4872,70.1713,9.4481,1,0
0000989761,6,0.0413,0.5794,-0.0126,0.8139,166,-208,872,-1651,139,983,-420,230,90,4.7764,70.7601,9.2059,1,0
0000989782,6,0.0348,0.5845,-0.0056,0.8106,138,-233,851,-1623,195,947,-282,256,42,5.7098,71.4478,9.0236,1,0
0000989803,6,0.0307,0.5904,-0.0018,0.8065,108,-247,826,-1699,155,827,-165,283,7,6.3066,72.2598,8.9719,1,0
0000989824,6,0.0275,0.5982,0.0008,0.8009,108,-247,826,-1775,167,803,-71,301,-10,6.8538,73.3533,9.0331,1,1
0000989845,6,0.0263,0.6048,0.0014,0.7959,80,-253,805,-1875,55,715,-33,323,-19,7.2216,74.3061,9.2627,1,1
0000989866,6,0.0247,0.6119,0.0019,0.7906,51,-260,775,-2051,15,563,-72,341,-34,7.5170,75.3223,9.3775,1,1
0000989887,6,0.0223,0.6191,0.0024,0.7850,20,-269,746,-2135,79,535,-70,346,-48,7.6659,76.3809,9.2854,1,1
0000989908,6,0.0209,0.6261,0.0026,0.7795,-6,-269,720,-2135,43,147,6,286,2,7.9604,77.3961,9.4545,1,1
0000989929,6,0.0243,0.6323,0.0010,0.7743,-6,-269,720,-2047,-187,195,238,196,37,9.1587,78.2879,11.0569,1,1
0000989950,6,0.0323,0.6353,-0.0046,0.7716,-28,-249,709,-2035,-527,395,411,117,10,9.9818,78.7120,12.9824,1,1
0000989971,6,0.0385,0.6367,-0.0105,0.7701,-37,-230,702,-2083,-355,391,247,47,-37,9.8557,78.9349,13.8487,1,1
0000989992,6,0.0409,0.6363,-0.0148,0.7702,-40,-226,697,-1795,359,479,167,-75,-78,8.7661,78.9264,13.3041,1,1
0000990013,6,0.0447,0.6319,-0.0215,0.7735,-19,-209,707,-1743,219,655,390,-361,-117,6.6170,78.3569,12.0164,1,1
0000990034,6,0.0531,0.6195,-0.0354,0.7824,-19,-209,707,-1823,-395,1035,504,-571,-160,2.5867,76.6902,9.8187,1,1
0000990055,6,0.0583,0.6057,-0.0456,0.7922,18,-186,728,-1975,-1259,1343,247,-683,-113,359.6479,74.8061,8.1461,1,1
0000990076,6,0.0531,0.5908,-0.0458,0.8038,67,-194,735,-2163,-811,1295,-406,-722,-28,357.9073,72.6669,6.0141,1,1
0000990097,6,0.0358,0.5755,-0.0350,0.8163,110,-255,717,-2295,-75,975,-923,-763,2,357.2841,70.3989,3.1046,1,1
0000990118,6,0.0138,0.5587,-0.0223,0.8290,156,-320,695,-2003,307,787,-877,-830,-91,356.7011,67.9535,-0.3182,1,1
0000990139,6,-0.0057,0.5348,-0.0166,0.8448,207,-358,686,-1931,-43,839,-386,-900,-210,355.4476,64.6132,-3.6484,1,1
0000990160,6,-0.0145,0.5140,-0.0188,0.8575,207,-358,686,-1947,-303,911,-135,-933,-266,354.2734,61.7483,-5.3666,1,1
0000990181,6,-0.0203,0.4928,-0.0242,0.8695,262,-376,687,-1843,-419,939,-34,-898,-296,353.1005,58.8841,-6.5681,1,1
0000990202,6,-0.0258,0.4731,-0.0304,0.8801,314,-389,684,-1715,-163,723,-41,-808,-318,351.9412,56.2184,-7.6665,1,1
0000990223,6,-0.0310,0.4556,-0.0375,0.8888,353,-397,683,-1587,79,647,39,-653,-343,350.7374,53.8652,-8.7076,1,1
0000990244,6,-0.0331,0.4377,-0.0487,0.8972,382,-392,684,-1339,367,619,215,-519,-334,349.2312,51.4658,-9.4257,1,1
0000990265,6,-0.0296,0.4271,-0.0598,0.9017,382,-392,684,-1299,43,487,386,-343,-312,348.0356,50.0641,-9.3604,1,1
0000990286,6,-0.0226,0.4219,-0.0712,0.9035,398,-372,690,-1103,-83,511,437,-73,-258,346.8754,49.3975,-8.9186,1,1
0000990307,6,-0.0157,0.4243,-0.0807,0.9018,388,-347,682,-1019,163,707,336,260,-191,345.7800,49.7082,-8.6037,1,1
0000990328,6,-0.0075,0.4330,-0.0890,0.8969,352,-319,669,559,1363,4723,589,328,-145,344.7420,50.8477,-8.2438,1,1
0000990349,6,0.0121,0.4334,-0.1005,0.8955,335,-265,663,-2183,19,1871,713,-50,26,344.3191,51.1412,-5.9967,1,1
0000990370,6,0.0287,0.4330,-0.1048,0.8948,295,-211,649,-1351,723,343,596,150,202,344.9063,51.3515,-3.6107,1,1
0000990391,6,0.0488,0.4361,-0.1048,0.8924,295,-211,649,-1771,75,1607,624,236,348,346.4097,52.0621,-0.4060,1,1
0000990412,6,0.0627,0.4418,-0.0985,0.8895,249,-161,625,-2815,-583,1355,78,388,457,348.5159,52.9674,2.3232,1,1
0000990433,6,0.0660,0.4515,-0.0856,0.8857,191,-149,586,-2767,-391,1055,-475,482,442,350.9415,54.2006,3.8763,1,1
0000990454,6,0.0593,0.4666,-0.0648,0.8801,129,-150,547,-2283,707,559,-358,497,374,353.9681,55.9948,4.4963,1,1
0000990475,6,0.0679,0.4756,-0.0618,0.8748,88,-109,534,-1871,71,759,597,361,116,355.3958,57.2016,6.3637,1,1
0000990496,6,0.0907,0.4808,-0.0737,0.8690,88,-109,534,-2059,99,1131,1076,263,-66,355.5672,58.0975,9.4512,1,1
0000990517,6,0.1132,0.4849,-0.0878,0.8628,55,-49,530,-1947,863,1095,849,287,-63,355.3560,58.9355,12.3198,1,1
0000990538,6,0.1307,0.4904,-0.0970,0.8562,26,-6,516,-2615,135,511,639,345,11,355.6691,59.8876,14.8677,1,1
0000990559,6,0.1433,0.4990,-0.1006,0.8487,-7,13,500,-2919,-255,363,221,328,34,356.7127,61.1438,17.2289,1,1
0000990580,6,0.1482,0.5046,-0.1018,0.8444,-29,28,492,-1875,883,599,213,238,-10,357.2743,61.9287,18.2695,1,1
0000990601,6,0.1577,0.5081,-0.1073,0.8399,-29,28,492,-1551,639,1055,554,182,-52,357.5064,62.5402,19.7492,1,1
0000990622,6,0.1718,0.5107,-0.1167,0.8343,-47,57,490,-1919,-247,1327,626,210,-62,357.5673,63.1563,21.7771,1,1
0000990643,6,0.1804,0.5155,-0.1212,0.8289,-67,79,479,-2003,-251,1155,201,301,-9,358.0489,63.9335,23.3464,1,1
0000990664,6,0.1822,0.5246,-0.1187,0.8231,-97,79,462,-1819,459,807,-31,345,39,359.4319,65.0710,24.6064,1,1
0000990685,6,0.1851,0.5316,-0.1170,0.8182,-128,88,443,-1723,483,551,120,331,34,0.7435,65.9490,25.9760,1,1
0000990706,6,0.1906,0.5377,-0.1175,0.8129,-156,97,426,-1855,407,459,208,305,22,2.0230,66.7704,27.7260,1,1
0000990727,6,0.1960,0.5432,-0.1183,0.8078,-156,97,426,-1895,299,451,163,267,26,3.2666,67.5089,29.4597,1,1
0000990748,6,0.2001,0.5481,-0.1184,0.8034,-179,106,410,-1963,439,367,101,236,22,4.4898,68.1427,31.0104,1,1
0000990769,6,0.2045,0.5533,-0.1186,0.7987,-196,113,397,-1879,599,363,148,197,13,5.8615,68.8115,32.7388,1,1
0000990790,6,0.2088,0.5563,-0.1201,0.7953,-213,121,388,-1935,523,295,175,150,0,6.6903,69.2296,34.0382,1,1
0000990811,6,0.2125,0.5587,-0.1217,0.7924,-222,128,379,-1939,407,551,145,126,-4,7.3399,69.5727,35.1260,1,1
0000990832,6,0.2156,0.5610,-0.1232,0.7897,-222,128,379,-2003,399,567,113,135,-12,7.9327,69.9064,36.0934,1,1
0000990853,6,0.2186,0.5643,-0.1244,0.7863,-233,133,372,-1919,379,519,91,140,-12,8.7528,70.3649,37.2525,1,1
0000990874,6,0.2202,0.5669,-0.1249,0.7839,-241,136,361,-2031,431,435,48,121,-15,9.3656,70.7001,38.0351,1,1
0000990895,6,0.2210,0.5693,-0.1251,0.7819,-252,136,354,-1955,411,543,26,114,-21,9.9011,71.0168,38.6343,1,1
0000990916,6,0.2213,0.5716,-0.1251,0.7802,-258,134,344,-2023,287,547,-3,102,-19,10.3830,71.3081,39.1314,1,1
0000990937,6,0.2204,0.5740,-0.1242,0.7788,-267,131,337,-2007,259,647,-75,111,-15,10.8867,71.5913,39.4719,1,1
0000990958,6,0.2183,0.5776,-0.1219,0.7771,-267,131,337,-2043,275,635,-107,128,-11,11.6756,71.9742,39.8723,1,1
0000990979,6,0.2163,0.5810,-0.1197,0.7754,-279,124,327,-2011,351,727,-101,160,-11,12.5195,72.3387,40.3448,1,1
0000991000,6,0.2149,0.5852,-0.1175,0.7730,-292,122,314,-2023,307,779,-83,203,-16,13.6485,72.7957,41.1554,1,1
0000991021,6,0.2135,0.5903,-0.1152,0.7698,-312,118,295,-2023,267,671,-102,251,-16,15.1164,73.3608,42.2842,1,1
0000991042,6,0.2112,0.5965,-0.1117,0.7662,-335,108,272,-2031,307,539,-164,290,-13,17.0428,74.0050,43.7013,1,1
0000991063,6,0.2075,0.6052,-0.1062,0.7612,-335,108,272,-2007,335,507,-180,327,-10,20.0474,74.8856,45.9111,1,1
0000991084,6,0.2047,0.6125,-0.1017,0.7567,-360,102,247,-2031,391,407,-177,338,-9,22.8863,75.6007,48.1153,1,1
0000991105,6,0.2023,0.6199,-0.0976,0.7518,-382,97,218,-1995,495,275,-126,356,-16,26.0961,76.3243,50.7617,1,1
0000991126,6,0.2018,0.6274,-0.0952,0.7460,-409,94,190,-1983,411,295,-9,364,-26,29.7391,77.0505,54.1443,1,1
0000991147,6,0.2029,0.6348,-0.0947,0.7396,-430,93,159,-2019,351,295,62,370,-46,33.7002,77.7703,58.1388,1,1
0000991168,6,0.2042,0.6442,-0.0946,0.7310,-430,93,159,-2003,319,251,32,384,-61,39.3595,78.6586,63.8759,1,1
0000991189,6,0.2041,0.6522,-0.0937,0.7240,-455,91,128,-2031,347,287,-20,403,-62,44.7324,79.3121,69.1467,1,1
0000991210,6,0.2033,0.6606,-0.0921,0.7168,-477,85,90,-2031,399,303,-33,425,-65,51.1060,79.8889,75.3190,1,1
0000991231,6,0.2027,0.6693,-0.0906,0.7090,-501,79,53,-2035,435,371,-11,446,-74,58.4886,80.3524,82.5212,1,1
0000991252,6,0.2022,0.6782,-0.0898,0.7008,-524,75,12,-1863,391,199,-24,433,-86,66.6861,80.6993,90.5952,1,1
0000991273,6,0.2006,0.6880,-0.0869,0.6920,-544,71,-25,-2215,27,67,-121,365,-18,76.1890,80.7674,99.7283,1,1
0000991294,6,0.1963,0.6946,-0.0796,0.6876,-544,71,-25,-2239,387,-143,-406,310,30,82.1415,80.5197,104.7152,1,1
0000991315,6,0.1881,0.7003,-0.0681,0.6852,-565,69,-58,-2047,911,-527,-527,242,28,86.7151,80.1897,107.6626,1,1
0000991336,6,0.1817,0.7042,-0.0601,0.6838,-579,68,-78,-2307,491,-359,-251,131,-15,89.6415,79.9990,109.4072,1,1
0000991357,6,0.1789,0.7057,-0.0584,0.6830,-593,63,-85,-2151,-407,463,-46,-35,-83,90.9828,80.0468,110.3780,1,0
0000991378,6,0.1758,0.7027,-0.0627,0.6865,-600,52,-68,-1823,227,535,58,-291,-167,88.3933,80.7274,107.8770,1,0
0000991399,6,0.1738,0.6959,-0.0693,0.6934,-600,52,-68,-1815,395,503,140,-469,-152,81.4424,81.5220,101.2857,1,0
0000991420,6,0.1749,0.6856,-0.0801,0.7021,-610,40,-30,-1723,-83,663,350,-615,-173,69.7511,82.1946,90.5742,1,0
0000991462,6,0.1735,0.6592,-0.1013,0.7247,-617,20,79,-1779,-155,607,-69,-756,-136,36.5623,82.0915,59.0264,1,0
0000991483,6,0.1641,0.6419,-0.1050,0.7416,-618,5,136,-1839,387,407,-249,-766,-105,19.6516,80.5955,41.6604,1,0
0000991504,6,0.1547,0.6278,-0.1061,0.7554,-618,-12,196,-1867,447,479,-238,-774,-129,10.1790,78.9218,31.5358,1,0
0000991525,6,0.1467,0.6133,-0.1097,0.7683,-618,-12,196,-1943,223,371,-128,-768,-170,2.9082,77.0550,23.9359,1,0
0000991546,6,0.1382,0.5995,-0.1140,0.7801,-611,-32,253,-2139,23,331,-186,-659,-217,357.2814,75.1955,18.0035,1,1
0000991567,6,0.1296,0.5881,-0.1184,0.7895,-602,-58,306,-1811,127,1055,-112,-558,-227,352.9818,73.5968,13.3964,1,1
0000991588,6,0.1190,0.5789,-0.1213,0.7975,-602,-83,329,-3499,-67,-2467,-278,-211,-156,349.5168,72.2177,9.3235,1,1
0000991609,6,0.1127,0.5864,-0.1199,0.7932,-625,-98,291,-1999,1299,-767,-105,558,-137,348.4419,73.1711,7.5768,1,1
0000991630,6,0.1231,0.5960,-0.1277,0.7832,-625,-98,291,-1763,1327,1127,800,362,-55,348.2877,74.7833,8.9015,1,1
0000991651,6,0.1395,0.5957,-0.1410,0.7783,-639,-71,290,-3015,-1691,267,630,66,-67,348.0028,75.1642,11.0812,1,1
0000991672,6,0.1379,0.5999,-0.1421,0.7751,-643,-72,277,-1739,315,335,-416,160,-57,347.1395,75.7635,10.1601,1,1
0000991693,6,0.1268,0.6047,-0.1335,0.7749,-651,-94,260,-2331,1675,-467,-452,102,-31,347.0659,76.1670,8.4393,1,1
0000991714,6,0.1257,0.6052,-0.1353,0.7743,-647,-101,269,-2275,-151,-431,268,-60,-124,346.0399,76.2392,7.4725,1,1
0000991735,6,0.1297,0.6019,-0.1438,0.7747,-639,-107,284,-2491,-403,35,243,-146,-136,344.0938,75.9122,6.5711,1,1
0000991756,6,0.1269,0.5991,-0.1463,0.7769,-639,-107,284,-2503,43,-143,-154,-183,-90,342.5243,75.4628,4.9869,1,1
0000991777,6,0.1183,0.5934,-0.1456,0.7827,-622,-121,299,-2627,-387,-399,-203,-350,-101,340.9316,74.4515,2.6402,1,1
0000991798,6,0.1099,0.5861,-0.1459,0.7894,-597,-141,326,-2999,-591,-235,-272,-428,-144,339.4263,73.2168,0.4984,1,1
0000991819,6,0.0975,0.5784,-0.1461,0.7966,-561,-176,358,-3099,-43,-327,-355,-494,-253,337.3976,71.8122,-2.5121,1,1
0000991840,6,0.0863,0.5683,-0.1522,0.8040,-510,-212,404,-2791,523,435,-34,-579,-405,334.5209,70.0676,-5.7632,1,1
0000991861,6,0.0807,0.5549,-0.1666,0.8111,-510,-212,404,-2351,911,1503,392,-744,-529,331.2049,67.9713,-8.2758,1,1
0000991882,6,0.0805,0.5295,-0.1939,0.8219,-440,-234,477,-2815,-135,1491,677,-977,-598,327.3150,64.3715,-9.7297,1,1
0000991903,6,0.0787,0.5057,-0.2183,0.8309,-345,-249,561,-2607,-455,1527,460,-987,-676,324.2321,61.0188,-10.7072,1,1
0000991924,6,0.0691,0.4853,-0.2384,0.8384,-247,-283,630,-2255,-163,1355,105,-879,-687,321.3042,57.8548,-12.5389,1,1
0000991945,6,0.0547,0.4686,-0.2548,0.8441,-149,-327,676,-2051,-11,1191,-77,-756,-684,318.6802,54.9811,-14.7841,1,1
0000991966,6,0.0387,0.4555,-0.2687,0.8478,-64,-374,709,-1827,91,1207,-196,-573,-630,316.3433,52.4859,-17.1170,1,1
0000991987,6,0.0200,0.4437,-0.2826,0.8502,-64,-374,709,-1395,107,1067,-188,-438,-522,313.9737,49.9736,-19.7027,1,1
0000992008,6,0.0087,0.4371,-0.2899,0.8514,5,-407,732,-871,123,947,-160,-308,-323,312.7849,48.5295,-21.1227,1,1
0000992029,6,0.0021,0.4326,-0.2920,0.8530,52,-425,750,-551,75,979,-110,-199,-56,312.5248,47.6679,-21.6992,1,1
0000992050,6,0.0008,0.4304,-0.2882,0.8554,69,-422,761,-207,-91,1035,-74,-77,239,313.2721,47.4584,-21.3980,1,1
0000992071,6,0.0031,0.4312,-0.2777,0.8585,56,-412,762,-55,-131,967,-140,64,502,314.9861,47.9022,-20.4384,1,1
0000992092,6,0.0089,0.4367,-0.2565,0.8622,56,-412,762,23,-323,903,-189,209,754,318.2645,49.2554,-18.6389,1,1
0000992113,6,0.0156,0.4438,-0.2346,0.8648,18,-392,752,55,-455,919,-231,289,890,321.7002,50.7907,-16.6505,1,1
0000992134,6,0.0222,0.4522,-0.2096,0.8666,-32,-368,730,127,-559,811,-311,352,966,325.6963,52.4817,-14.3705,1,1
0000992155,6,0.0280,0.4621,-0.1827,0.8674,-92,-341,700,19,-699,875,-353,392,971,330.1025,54.2757,-11.8841,1,1
0000992176,6,0.0332,0.4721,-0.1570,0.8668,-152,-311,661,-127,-735,1055,-320,439,862,334.5104,55.9901,-9.3214,1,1
0000992197,6,0.0386,0.4858,-0.1289,0.8637,-152,-311,661,-379,-787,1183,-316,487,718,339.4970,58.1113,-6.3519,1,1
0000992218,6,0.0406,0.4977,-0.1095,0.8594,-212,-284,616,-807,-495,1007,-349,509,570,342.9023,59.8171,-4.4695,1,1
0000992239,6,0.0416,0.5092,-0.0948,0.8544,-264,-266,562,-1047,-175,1287,-201,486,397,345.5282,61.4041,-3.0452,1,1
0000992260,6,0.0472,0.5194,-0.0879,0.8487,-314,-233,515,-1415,0,1535,148,464,233,347.3020,62.8659,-1.4201,1,1
0000992281,6,0.0575,0.5286,-0.0885,0.8423,-354,-194,476,-1995,431,1539,479,445,66,348.2741,64.2483,0.4284,1,0
0000992302,6,0.0763,0.5385,-0.0982,0.8334,-396,-145,445,-2355,447,1519,785,403,-36,348.4986,65.8612,2.9978,1,0
0000992323,6,0.0959,0.5443,-0.1119,0.8258,-396,-145,445,-2707,-103,1683,905,352,-88,348.1261,67.0026,5.3794,1,0
0000992344,6,0.1123,0.5498,-0.1234,0.8184,-434,-101,418,-2627,163,1511,642,366,-44,347.8603,68.0825,7.4137,1,1
0000992365,6,0.1233,0.5565,-0.1281,0.8116,-477,-71,384,-2143,223,2271,321,369,62,348.5133,69.2106,9.3386,1,1
0000992386,6,0.1276,0.5619,-0.1250,0.8077,-522,-54,347,-4995,-15,-1975,-190,299,194,350.1609,69.9820,11.0578,1,1
0000992407,6,0.1243,0.5775,-0.1110,0.7992,-572,-40,297,-2615,1371,-775,-115,638,199,353.7417,71.9232,13.1436,1,1
0000992428,6,0.1342,0.5864,-0.1087,0.7914,-572,-40,297,-2575,-31,971,400,389,203,357.1067,73.1979,17.1029,1,1
0000992449,6,0.1424,0.5929,-0.1062,0.7854,-600,-9,271,-2731,-1031,-551,-5,393,207,0.4130,74.0792,20.8642,1,1
0000992470,6,0.1444,0.5997,-0.1012,0.7805,-625,3,238,-2331,495,-647,0,243,67,3.3373,74.8927,23.5203,1,1
0000992491,6,0.1485,0.6030,-0.1004,0.7773,-639,18,229,-3639,1263,-959,435,100,136,5.2028,75.3107,25.6501,1,1
0000992512,6,0.1677,0.6011,-0.1107,0.7735,-639,47,234,-1719,27,471,727,-31,60,6.8641,75.2501,29.7613,1,1
0000992533,6,0.1761,0.5992,-0.1153,0.7724,-641,61,237,-1635,471,147,140,-10,88,7.3488,75.0768,31.3419,1,1
0000992554,6,0.1785,0.5983,-0.1129,0.7729,-641,61,237,-2007,767,215,5,-21,135,8.6078,74.8434,32.5989,1,1
0000992575,6,0.1825,0.5967,-0.1127,0.7733,-639,71,239,-2095,335,355,279,-62,87,9.3916,74.5642,33.7152,1,1
0000992596,6,0.1904,0.5938,-0.1165,0.7730,-638,88,247,-2027,11,811,352,-76,77,9.7489,74.2432,35.0638,1,1
0000992617,6,0.1974,0.5911,-0.1193,0.7729,-636,101,251,-2127,539,547,114,-26,77,10.1863,73.9178,36.3296,1,1
0000992638,6,0.1992,0.5905,-0.1184,0.7730,-637,106,252,-2023,527,483,14,1,64,10.7510,73.7742,36.9772,1,1
0000992659,6,0.2005,0.5904,-0.1174,0.7729,-637,106,252,-2011,315,419,14,17,51,11.3338,73.6964,37.5864,1,1
0000992680,6,0.2018,0.5904,-0.1168,0.7727,-637,113,250,-2051,375,379,46,11,45,11.8320,73.6514,38.1421,1,1
0000992701,6,0.2038,0.5902,-0.1165,0.7724,-638,117,251,-2031,299,387,30,10,41,12.3883,73.5782,38.8417,1,1
0000992722,6,0.2039,0.5904,-0.1152,0.7724,-640,119,248,-1999,331,439,-63,18,41,12.8107,73.5365,39.1716,1,1
0000992743,6,0.2020,0.5910,-0.1120,0.7729,-639,118,246,-1975,471,191,-177,18,47,13.3346,73.4966,39.2650,1,1
0000992764,6,0.1982,0.5916,-0.1075,0.7741,-639,118,246,-1939,491,287,-232,3,44,13.7983,73.4328,39.0373,1,1
0000992785,6,0.1942,0.5919,-0.1031,0.7754,-642,115,246,-1931,411,403,-223,-5,40,14.1303,73.3457,38.6650,1,1
0000992806,6,0.1897,0.5921,-0.0984,0.7770,-641,110,244,-1991,391,535,-172,-16,32,14.4024,73.2285,38.1700,1,1
0000992827,6,0.1866,0.5920,-0.0951,0.7783,-641,109,246,-2043,227,559,-194,-17,31,14.5343,73.1243,37.7722,1,1
0000992848,6,0.1819,0.5923,-0.0906,0.7797,-639,100,245,-1975,379,507,-274,0,32,14.7566,73.0501,37.2273,1,1
0000992869,6,0.1771,0.5929,-0.0857,0.7809,-641,96,244,-1971,407,531,-241,9,34,15.0872,73.0036,36.7441,1,1
0000992890,6,0.1735,0.5935,-0.0820,0.7816,-641,96,244,-1983,347,571,-151,19,24,15.4067,72.9848,36.4635,1,1
0000992911,6,0.1703,0.5944,-0.0784,0.7820,-642,92,242,-2019,295,515,-150,32,22,15.8564,73.0109,36.3430,1,1
0000992932,6,0.1669,0.5954,-0.0751,0.7823,-644,88,238,-2023,475,395,-190,37,14,16.2157,73.0653,36.1408,1,1
0000992953,6,0.1636,0.5965,-0.0720,0.7825,-646,85,236,-1987,399,383,-154,34,7,16.5228,73.1386,35.9080,1,1
0000992974,6,0.1609,0.5974,-0.0696,0.7826,-647,79,233,-1987,439,315,-127,30,0,16.7551,73.2105,35.7240,1,1
0000992995,6,0.1587,0.5982,-0.0679,0.7826,-647,79,233,-1919,423,439,-67,20,-8,16.8772,73.2870,35.5175,1,1
0000993016,6,0.1574,0.5986,-0.0673,0.7825,-648,77,232,-2023,359,459,-23,5,-16,16.8603,73.3516,35.3468,1,1
0000993037,6,0.1565,0.5988,-0.0674,0.7825,-646,75,228,-2055,403,463,-30,0,-26,16.6676,73.3962,35.0808,1,1
0000993058,6,0.1552,0.5990,-0.0675,0.7827,-647,71,230,-2059,323,531,-42,1,-39,16.3693,73.4529,34.6826,1,1
0000993079,6,0.1533,0.5996,-0.0676,0.7826,-646,65,228,-1967,491,535,-59,18,-51,16.0149,73.5651,34.1708,1,1
0000993100,6,0.1514,0.6004,-0.0679,0.7823,-646,57,225,-2015,455,451,-32,28,-67,15.6278,73.7273,33.6533,1,1
0000993121,6,0.1493,0.6016,-0.0692,0.7816,-646,57,225,-1987,399,491,-16,34,-84,15.0098,73.9817,32.9651,1,1
0000993142,6,0.1479,0.6028,-0.0710,0.7809,-645,49,221,-2015,319,435,9,38,-99,14.3642,74.2317,32.3423,1,1
0000993163,6,0.1467,0.6039,-0.0735,0.7800,-646,41,219,-2019,479,439,32,38,-119,13.5257,74.5088,31.6048,1,1
0000993184,6,0.1461,0.6051,-0.0772,0.7788,-646,33,217,-2003,407,483,98,37,-138,12.4880,74.8122,30.8220,1,1
0000993205,6,0.1462,0.6062,-0.0820,0.7774,-644,21,215,-2023,343,491,115,39,-160,11.1718,75.1477,29.9040,1,1
0000993226,6,0.1452,0.6080,-0.0883,0.7755,-644,21,215,-2055,491,407,86,51,-186,9.1917,75.6312,28.3425,1,1
0000993247,6,0.1443,0.6097,-0.0936,0.7738,-642,10,209,-2011,243,467,102,58,-196,7.3927,76.0521,26.9077,1,1
0000993268,6,0.1424,0.6116,-0.0985,0.7720,-641,-6,205,-1999,311,375,34,67,-202,5.4375,76.4963,25.1920,1,1
0000993289,6,0.1397,0.6137,-0.1026,0.7703,-641,-21,200,-2019,247,291,13,61,-201,3.3715,76.9291,23.2350,1,1
0000993310,6,0.1367,0.6154,-0.1067,0.7689,-636,-36,193,-2027,147,271,-9,36,-199,1.0850,77.3022,21.0228,1,1
0000993331,6,0.1320,0.6170,-0.1110,0.7678,-633,-54,193,-2047,119,171,-49,5,-194,357.9757,77.6341,17.8782,1,1
0000993352,6,0.1277,0.6174,-0.1140,0.7678,-633,-54,193,-2079,87,87,-54,-38,-186,355.3119,77.7450,15.1035,1,1
0000993373,6,0.1235,0.6167,-0.1171,0.7686,-623,-72,194,-2127,79,51,-45,-95,-176,352.5658,77.6596,12.2765,1,1
0000993394,6,0.1192,0.6147,-0.1202,0.7704,-613,-86,204,-2163,23,-71,-61,-180,-168,349.8364,77.3602,9.4470,1,1
0000993415,6,0.1147,0.6111,-0.1234,0.7734,-595,-100,219,-2315,267,3,-33,-252,-166,347.1917,76.8016,6.7050,1,1
0000993436,6,0.1102,0.6047,-0.1290,0.7782,-576,-111,242,-2311,563,223,56,-301,-187,343.9930,75.8197,3.6191,1,1
0000993457,6,0.1086,0.5983,-0.1357,0.7822,-576,-111,242,-2527,171,511,154,-329,-188,341.5916,74.8920,1.6677,1,1
0000993478,6,0.1076,0.5909,-0.1428,0.7867,-548,-120,270,-2371,155,867,117,-362,-167,339.5047,73.8237,0.1146,1,1
0000993499,6,0.1043,0.5836,-0.1462,0.7919,-520,-129,297,-2283,175,947,-158,-368,-58,338.3163,72.7162,-1.0479,1,1
0000993520,6,0.0968,0.5764,-0.1440,0.7986,-491,-143,326,-1867,475,1451,-416,-469,-5,338.0677,71.5128,-2.0671,1,1
0000993541,6,0.0810,0.5624,-0.1363,0.8115,-449,-163,370,-2095,843,1787,-528,-760,10,338.4937,69.2033,-3.5268,1,1
0000993562,6,0.0675,0.5435,-0.1316,0.8263,-449,-163,370,-2099,843,1787,-411,-1025,-29,338.9618,66.3440,-4.5033,1,1
0000993583,6,0.0571,0.5189,-0.1310,0.8428,-392,-183,441,-1911,595,1895,-137,-1234,-61,339.2882,62.8249,-4.9820,1,1
0000993604,6,0.0529,0.4880,-0.1351,0.8607,-313,-189,528,-1775,-87,1911,147,-1414,-59,339.6181,58.6922,-4.5097,1,1
0000993625,6,0.0517,0.4533,-0.1403,0.8787,-217,-178,623,-1575,-391,1911,196,-1496,15,340.0339,54.2114,-3.5562,1,1
0000993646,6,0.0485,0.4090,-0.1432,0.8999,-114,-173,705,-1383,-459,1591,1,-1453,57,340.7461,48.5867,-2.5899,1,1
0000993667,6,0.0412,0.3754,-0.1428,0.9149,-15,-179,768,-1103,-307,1303,-122,-1369,35,341.2208,44.3197,-2.5436,1,1
0000993688,6,0.0347,0.3440,-0.1435,0.9273,-15,-179,768,-827,-683,1167,-19,-1243,-27,341.4572,40.3861,-2.5889,1,1
0000993709,6,0.0303,0.3152,-0.1467,0.9371,80,-179,818,-787,-907,1051,70,-1077,-129,341.3477,36.8392,-2.5596,1,1
0000993730,6,0.0265,0.2838,-0.1538,0.9461,165,-176,855,-719,-843,887,122,-909,-203,340.7765,33.0293,-2.5434,1,1
0000993751,6,0.0262,0.2632,-0.1619,0.9507,233,-165,885,-703,-995,851,253,-720,-261,340.0265,30.5903,-2.3543,1,1
0000993772,6,0.0283,0.2473,-0.1715,0.9532,281,-152,905,-695,-1171,903,281,-513,-304,339.0766,28.7632,-2.0233,1,1
0000993793,6,0.0302,0.2371,-0.1814,0.9539,281,-152,905,-687,-1407,959,171,-281,-323,338.0202,27.6060,-1.8349,1,1
0000993814,6,0.0279,0.2339,-0.1897,0.9532,302,-151,917,-747,-1187,919,-85,2,-306,336.9348,27.1556,-2.2837,1,1
0000993835,6,0.0224,0.2384,-0.1980,0.9505,298,-168,915,-755,-895,919,-144,214,-287,335.6451,27.5161,-3.3538,1,1
0000993856,6,0.0196,0.2475,-0.2042,0.9469,267,-186,908,-851,-863,995,-49,399,-271,334.6030,28.4749,-4.1756,1,1
0000993877,6,0.0206,0.2605,-0.2106,0.9420,215,-193,898,-1047,-759,1219,43,574,-255,333.5441,29.9679,-4.6950,1,1
0000993898,6,0.0248,0.2770,-0.2167,0.9358,145,-194,885,-1111,-763,1427,103,727,-227,332.4939,31.9524,-4.9846,1,1
0000993919,6,0.0311,0.2956,-0.2222,0.9286,145,-194,885,-1183,-651,1775,177,789,-171,331.5096,34.2461,-5.1021,1,1
0000993940,6,0.0388,0.3197,-0.2266,0.9192,71,-191,866,-1567,-839,2103,-25,834,-102,330.5208,37.2581,-5.3017,1,1
0000993961,6,0.0378,0.3425,-0.2246,0.9115,-11,-213,833,-1579,-287,2075,-341,890,-3,330.0075,39.8943,-6.3608,1,0
0000993982,6,0.0341,0.3661,-0.2190,0.9038,-93,-242,791,-1623,-67,1831,-380,878,67,329.7515,42.5862,-7.7081,1,1
0000994003,6,0.0317,0.3885,-0.2126,0.8960,-171,-262,752,-1687,235,1603,-283,854,109,329.6086,45.2143,-8.8509,1,1
0000994024,6,0.0338,0.4092,-0.2064,0.8881,-171,-262,752,-1839,339,1575,-105,824,178,329.6949,47.8050,-9.3252,1,1
0000994045,6,0.0436,0.4327,-0.1992,0.8782,-247,-256,714,-1963,99,1515,87,828,261,330.2546,51.0218,-8.7608,1,1
0000994066,6,0.0514,0.4520,-0.1909,0.8698,-322,-241,673,-1947,135,1235,-101,851,328,331.1529,53.6991,-8.0694,1,1
0000994087,6,0.0543,0.4724,-0.1782,0.8615,-397,-234,621,-1759,207,1643,-335,858,382,332.4392,56.4356,-7.7834,1,1
0000994108,6,0.0539,0.4911,-0.1622,0.8542,-455,-233,578,-547,599,2227,-427,639,453,334.2647,58.9183,-7.4819,1,1
0000994129,6,0.0491,0.4999,-0.1418,0.8530,-455,-233,578,-3275,443,167,-735,198,617,337.2564,60.0888,-6.6762,1,1
0000994150,6,0.0409,0.5114,-0.1106,0.8512,-494,-229,551,-1427,983,787,-662,462,671,342.0549,61.6045,-5.2559,1,1
0000994171,6,0.0416,0.5211,-0.0903,0.8477,-540,-211,513,-2263,479,903,-262,334,598,346.0172,62.9928,-2.9740,1,1
0000994192,6,0.0455,0.5281,-0.0757,0.8446,-575,-181,492,-2219,399,775,-179,317,453,349.4987,64.0123,-0.4038,1,1
0000994213,6,0.0454,0.5346,-0.0650,0.8414,-597,-173,468,-2095,1379,435,-226,269,256,351.7490,64.8932,0.9210,1,1
0000994234,6,0.0499,0.5402,-0.0593,0.8380,-616,-139,458,-2283,555,671,332,246,258,353.6525,65.6741,2.7131,1,1
0000994255,6,0.0650,0.5458,-0.0579,0.8334,-616,-139,458,-2355,-1315,999,252,254,266,356.3056,66.5262,6.4899,1,1
0000994276,6,0.0667,0.5514,-0.0502,0.8300,-635,-112,440,-2059,451,711,-301,276,255,358.5365,67.2353,8.2090,1,1
0000994297,6,0.0635,0.5573,-0.0397,0.8269,-655,-107,416,-1695,1391,487,-224,258,237,0.7851,67.9338,9.3106,1,1
0000994318,6,0.0686,0.5617,-0.0355,0.8237,-668,-85,405,-1815,347,567,209,197,192,2.9098,68.4789,11.5008,1,1
0000994339,6,0.0762,0.5651,-0.0347,0.8208,-681,-66,394,-2063,-55,595,169,170,164,4.6374,68.8940,13.7835,1,1
0000994360,6,0.0802,0.5692,-0.0305,0.8177,-681,-66,394,-2059,415,551,-8,158,150,6.7336,69.3473,15.8633,1,1
0000994381,6,0.0839,0.5719,-0.0284,0.8155,-690,-53,384,-1915,367,603,119,135,122,8.2038,69.6519,17.4538,1,1
0000994402,6,0.0886,0.5743,-0.0278,0.8133,-697,-39,374,-1967,243,627,131,123,105,9.4807,69.9137,19.0755,1,1
0000994423,6,0.0921,0.5767,-0.0266,0.8113,-704,-26,367,-2043,243,555,24,120,99,10.7186,70.1574,20.4946,1,1
0000994444,6,0.0936,0.5790,-0.0242,0.8096,-710,-21,358,-1951,331,515,-26,113,93,11.9081,70.3886,21.6032,1,1
0000994465,6,0.0945,0.5812,-0.0212,0.8079,-716,-16,352,-1907,455,491,-1,77,70,13.1605,70.6012,22.6812,1,1
0000994486,6,0.0966,0.5823,-0.0205,0.8069,-716,-16,352,-1963,279,539,68,48,54,13.9060,70.6938,23.5359,1,1
0000994507,6,0.0987,0.5830,-0.0204,0.8062,-715,-7,349,-1967,383,555,59,35,40,14.4402,70.7496,24.2396,1,1
0000994528,6,0.1006,0.5837,-0.0206,0.8055,-720,-3,350,-1959,375,623,68,38,23,14.8333,70.8051,24.8036,1,1
0000994549,6,0.1023,0.5844,-0.0211,0.8047,-720,1,346,-1955,355,607,63,43,16,15.1681,70.8919,25.3227,1,1
0000994570,6,0.1043,0.5856,-0.0220,0.8035,-724,3,342,-1999,283,615,75,49,5,15.5033,71.0392,25.8974,1,1
0000994591,6,0.1060,0.5867,-0.0230,0.8025,-724,3,342,-1991,355,547,72,52,-4,15.7165,71.1794,26.3307,1,1
0000994612,6,0.1075,0.5878,-0.0242,0.8015,-724,6,339,-1947,419,459,82,51,-9,15.8840,71.3342,26.7157,1,1
0000994633,6,0.1098,0.5887,-0.0262,0.8005,-727,8,337,-1955,395,455,151,32,-22,15.9412,71.4704,27.1221,1,1
0000994654,6,0.1139,0.5893,-0.0301,0.7993,-728,14,335,-1947,307,487,189,15,-29,15.8190,71.5996,27.6626,1,1
0000994675,6,0.1178,0.5893,-0.0342,0.7986,-727,18,338,-2015,311,507,227,-4,-40,15.5246,71.6604,28.0290,1,1
0000994696,6,0.1221,0.5890,-0.0389,0.7979,-727,23,341,-1959,363,507,233,-13,-48,15.0868,71.6972,28.3316,1,1
0000994717,6,0.1259,0.5885,-0.0434,0.7974,-727,23,341,-1935,407,455,209,-20,-51,14.5870,71.7233,28.5154,1,0
0000994738,6,0.1297,0.5879,-0.0480,0.7970,-724,27,343,-1971,295,555,227,-28,-51,14.0302,71.7276,28.6530,1,0
0000994759,6,0.1343,0.5871,-0.0538,0.7965,-725,31,348,-1987,263,635,205,-24,-51,13.2925,71.7386,28.7775,1,0
0000994780,6,0.1371,0.5866,-0.0576,0.7961,-722,34,350,-2003,351,567,150,-11,-53,12.7682,71.7726,28.8042,1,0
0000994801,6,0.1391,0.5865,-0.0610,0.7956,-722,34,354,-1995,403,471,139,-3,-56,12.2300,71.8422,28.7046,1,0
0000994822,6,0.1413,0.5865,-0.0648,0.7949,-722,34,354,-1995,395,471,161,-8,-65,11.6653,71.9309,28.6313,1,0
0000994843,6,0.1438,0.5861,-0.0691,0.7944,-720,35,353,-1979,375,531,191,-17,-78,10.9772,71.9974,28.5109,1,0
0000994864,6,0.1472,0.5856,-0.0752,0.7935,-720,36,356,-1975,387,567,193,-15,-89,9.9490,72.1002,28.2652,1,0
0000994885,6,0.1496,0.5854,-0.0801,0.7928,-717,34,358,-1987,431,527,180,-9,-101,9.0525,72.2084,27.9744,1,0
0000994906,6,0.1515,0.5853,-0.0853,0.7920,-715,31,359,-1983,431,523,176,-10,-116,8.0156,72.3479,27.5212,1,0
0000994927,6,0.1528,0.5852,-0.0906,0.7912,-715,31,359,-1971,451,419,155,-17,-136,6.7824,72.4983,26.8437,1,0
0000994948,6,0.1533,0.5850,-0.0959,0.7906,-713,26,362,-2003,403,443,111,-33,-158,5.3269,72.6313,25.8595,1,0
0000994969,6,0.1522,0.5846,-0.1024,0.7903,-710,14,363,-2031,467,447,72,-47,-185,3.1087,72.7800,24.0862,1,0
0000994990,6,0.1499,0.5841,-0.1078,0.7904,-707,-1,369,-2039,515,335,49,-62,-222,0.9060,72.8736,22.1468,1,0
0000995011,6,0.1471,0.5834,-0.1140,0.7906,-697,-21,374,-1999,583,167,52,-88,-249,358.3116,72.9335,19.8365,1,0
0000995032,6,0.1431,0.5821,-0.1204,0.7913,-687,-43,383,-2051,87,171,7,-137,-272,355.3383,72.8800,17.0534,1,0
0000995053,6,0.1367,0.5798,-0.1255,0.7933,-687,-43,383,-2047,-55,119,-198,-204,-276,352.1757,72.6060,13.7984,1,0
0000995074,6,0.1241,0.5758,-0.1299,0.7976,-670,-77,394,-2007,-31,-7,-216,-284,-300,348.0189,71.9498,8.9734,1,0
0000995095,6,0.1140,0.5701,-0.1361,0.8022,-651,-110,418,-2051,-659,243,-119,-411,-381,344.2403,71.0266,4.8969,1,0
0000995116,6,0.1046,0.5619,-0.1444,0.8078,-620,-144,447,-2611,251,527,-58,-459,-371,340.5121,69.7149,1.1227,1,0
0000995137,6,0.0978,0.5528,-0.1535,0.8132,-586,-169,481,-2539,11,647,44,-483,-355,337.5117,68.2932,-1.6459,1,0
0000995158,6,0.0902,0.5431,-0.1617,0.8190,-586,-169,481,-2579,-15,495,-159,-490,-299,334.9946,66.7531,-4.0520,1,0
0000995179,6,0.0753,0.5320,-0.1658,0.8269,-548,-201,507,-2615,295,479,-339,-507,-252,332.8869,64.7972,-6.9902,1,0
0000995200,6,0.0606,0.5227,-0.1668,0.8338,-507,-239,530,-2691,563,331,-424,-525,-259,331.6408,63.1175,-9.3238,1,0
0000995221,6,0.0451,0.5135,-0.1675,0.8404,-462,-279,547,-2579,823,515,-396,-528,-275,330.5556,61.4279,-11.5941,1,0
0000995242,6,0.0308,0.5035,-0.1698,0.8466,-406,-312,568,-2187,1007,651,-299,-582,-314,329.4904,59.6498,-13.6011,1,0
0000995263,6,0.0207,0.4897,-0.1755,0.8538,-343,-324,600,-1735,955,1911,46,-658,-294,328.6558,57.5140,-14.7252,1,0
0000995284,6,0.0164,0.4703,-0.1859,0.8626,-343,-324,600,-1923,11,2199,204,-675,-266,328.0060,54.8216,-14.7323,1,0
0000995305,6,0.0114,0.4535,-0.1933,0.8699,-271,-326,633,-1759,215,2299,-7,-739,-268,327.6045,52.5145,-14.8053,1,0
0000995326,6,0.0028,0.4360,-0.1983,0.8778,-193,-338,667,-1531,411,1871,-53,-782,-222,327.4270,50.0429,-15.1662,1,0
0000995347,6,-0.0017,0.4171,-0.2035,0.8858,-112,-332,704,-1083,323,1735,259,-794,-142,327.5493,47.5849,-14.8362,1,0
0000995368,6,0.0016,0.3962,-0.2100,0.8938,-36,-292,752,-811,-251,1795,564,-800,-40,327.9664,45.1459,-13.4057,1,0
0000995389,6,0.0153,0.3683,-0.2172,0.9038,-36,-292,752,-719,-587,2027,687,-746,106,328.9833,42.2541,-10.2967,1,0
0000995410,6,0.0273,0.3480,-0.2189,0.9112,30,-230,794,-571,-919,1871,518,-671,219,330.1469,40.2473,-7.7217,1,0
0000995431,6,0.0354,0.3294,-0.2166,0.9183,88,-182,824,-555,-967,1807,350,-629,298,331.4714,38.3417,-5.6915,1,0
0000995452,6,0.0410,0.3126,-0.2113,0.9252,136,-143,849,-351,-1071,1687,216,-569,378,332.9507,36.5647,-4.0089,1,0
0000995473,6,0.0458,0.2976,-0.2034,0.9316,177,-114,867,-307,-1291,1491,137,-514,441,334.5740,34.9688,-2.5037,1,0
0000995494,6,0.0492,0.2811,-0.1907,0.9393,208,-94,883,-307,-1463,1475,56,-456,475,336.7476,33.1437,-1.0075,1,0
0000995515,6,0.0501,0.2702,-0.1791,0.9447,208,-94,883,-395,-1475,1475,-73,-387,474,338.4843,31.9026,-0.1460,1,1
0000995536,6,0.0474,0.2616,-0.1669,0.9494,232,-89,891,-455,-1267,1255,-161,-320,438,340.1085,30.8406,0.1749,1,1
0000995557,6,0.0443,0.2547,-0.1560,0.9533,246,-90,900,-427,-1275,1219,-152,-265,378,341.5063,29.9661,0.3343,1,1
0000995578,6,0.0426,0.2494,-0.1471,0.9562,252,-90,906,-475,-1283,1463,-88,-145,269,342.6515,29.3032,0.5356,1,1
0000995599,6,0.0401,0.2472,-0.1394,0.9580,242,-101,908,-551,-1315,1311,-146,-6,161,343.5710,29.0073,0.5186,1,1
0000995620,6,0.0354,0.2497,-0.1355,0.9581,242,-101,908,-571,-1019,1219,-231,110,66,343.9017,29.2124,0.0071,1,1
0000995641,6,0.0297,0.2552,-0.1330,0.9572,220,-120,904,-583,-951,1019,-260,227,7,343.9932,29.7660,-0.7225,1,1
0000995662,6,0.0242,0.2644,-0.1314,0.9551,182,-144,898,-595,-855,1123,-223,455,-27,343.9035,30.7604,-1.5544,1,1
0000995683,6,0.0186,0.2843,-0.1298,0.9497,118,-170,881,-795,-919,963,-296,743,-37,343.6524,33.0151,-2.6301,1,1
0000995704,6,0.0106,0.3095,-0.1267,0.9424,19,-211,839,-1087,-663,1067,-493,1056,-5,343.3482,35.8699,-4.1329,1,1
0000995725,6,0.0031,0.3414,-0.1220,0.9320,19,-211,839,-1435,-219,1551,-399,1303,26,343.0096,39.5717,-5.7719,1,1
0000995746,6,0.0016,0.3764,-0.1192,0.9187,-101,-238,783,-2119,-247,1911,-194,1438,-1,342.4299,43.7935,-6.9081,1,1
0000995767,6,0.0006,0.4138,-0.1175,0.9028,-229,-260,709,-2635,-95,2131,-261,1590,-27,341.4360,48.3563,-8.3122,1,1
0000995788,6,-0.0028,0.4633,-0.1128,0.8790,-354,-287,611,-2739,255,2031,-409,1663,23,339.7706,54.4722,-10.8596,1,1
0000995809,6,-0.0064,0.5024,-0.1062,0.8581,-465,-311,499,-3223,1255,1247,-334,1611,101,338.2310,59.4102,-13.3820,1,1
0000995830,6,-0.0002,0.5351,-0.1030,0.8385,-547,-290,425,-3043,1759,843,256,1322,177,336.9411,63.8069,-14.4950,1,1
0000995851,6,0.0203,0.5560,-0.1092,0.8237,-547,-290,425,-2475,1359,699,914,853,125,336.2763,66.9900,-12.9967,1,1
0000995872,6,0.0469,0.5659,-0.1228,0.8139,-590,-239,403,-2191,655,635,1099,487,56,335.9745,68.8619,-9.9978,1,1
0000995893,6,0.0748,0.5704,-0.1393,0.8060,-611,-195,405,-2131,-319,-399,828,237,46,335.8375,70.1109,-6.4826,1,1
0000995914,6,0.0921,0.5727,-0.1478,0.8010,-625,-157,401,-2107,-1363,799,581,269,90,336.4034,70.8708,-3.7849,1,1
0000995935,6,0.0911,0.5801,-0.1395,0.7973,-651,-167,365,-1731,339,755,-792,340,259,337.9583,71.8913,-3.0328,1,1
0000995956,6,0.0745,0.5877,-0.1152,0.7974,-651,-167,365,-2379,1595,-331,-992,142,360,341.2165,72.6267,-3.1805,1,1
0000995977,6,0.0685,0.5911,-0.0993,0.7975,-667,-168,342,-2043,951,-227,-62,106,268,344.6125,73.0213,-1.6072,1,1
0000995998,6,0.0793,0.5911,-0.0979,0.7967,-682,-141,344,-2399,-115,335,467,-10,177,347.5445,73.2193,2.0971,1,1
0000996019,6,0.0926,0.5886,-0.1033,0.7964,-682,-109,355,-2043,19,611,537,-46,133,348.9908,73.0800,5.0968,1,1
0000996040,6,0.1056,0.5856,-0.1088,0.7963,-681,-79,370,-1879,307,663,502,-64,133,350.3140,72.8557,7.9459,1,1
0000996061,6,0.1173,0.5827,-0.1131,0.7962,-681,-79,370,-1859,211,567,438,-44,145,351.6348,72.6252,10.6086,1,1
0000996082,6,0.1274,0.5803,-0.1155,0.7961,-683,-45,383,-1939,-19,575,257,-22,174,353.1548,72.4209,13.1734,1,1
0000996103,6,0.1360,0.5783,-0.1146,0.7962,-685,-22,387,-2075,291,679,159,-17,182,355.2624,72.1808,15.9292,1,1
0000996124,6,0.1421,0.5768,-0.1133,0.7964,-689,1,391,-2003,363,655,162,-10,177,356.9397,71.9819,18.0125,1,1
0000996145,6,0.1476,0.5756,-0.1118,0.7965,-690,21,394,-2055,383,587,105,-4,165,358.4912,71.7945,19.9023,1,1
0000996166,6,0.1510,0.5749,-0.1091,0.7967,-693,35,394,-2019,347,751,9,7,156,359.9555,71.6303,21.4247,1,1
0000996187,6,0.1524,0.5749,-0.1051,0.7970,-693,35,394,-2035,371,855,-71,42,149,1.4008,71.5155,22.6628,1,1
0000996208,6,0.1534,0.5762,-0.0994,0.7966,-696,45,390,-2007,107,819,-92,96,143,3.3333,71.5306,24.2055,1,1
0000996229,6,0.1528,0.5786,-0.0937,0.7957,-704,51,382,-1991,431,771,-176,136,141,5.0597,71.6853,25.3899,1,1
0000996250,6,0.1514,0.5818,-0.0874,0.7943,-710,55,368,-1943,431,655,-180,171,129,6.9197,71.9424,26.6019,1,0
0000996271,6,0.1500,0.5854,-0.0814,0.7926,-722,57,353,-1943,383,495,-172,175,109,8.7784,72.2432,27.8490,1,0
0000996292,6,0.1481,0.5891,-0.0758,0.7907,-722,57,353,-1911,623,319,-186,169,91,10.5289,72.5744,28.9602,1,0
0000996313,6,0.1463,0.5931,-0.0699,0.7886,-727,58,336,-1947,503,335,-95,136,74,12.4355,72.9263,30.2265,1,0
0000996334,6,0.1462,0.5955,-0.0672,0.7871,-736,61,327,-2007,399,247,-59,102,57,13.6271,73.1454,31.1701,1,0
0000996355,6,0.1456,0.5973,-0.0646,0.7860,-738,63,320,-1947,399,323,-78,77,50,14.5822,73.3046,31.8594,1,0
0000996376,6,0.1450,0.5985,-0.0622,0.7854,-740,63,314,-1995,307,407,-73,45,52,15.3813,73.3770,32.4084,1,0
0000996397,6,0.1440,0.5994,-0.0596,0.7851,-743,66,312,-2003,279,431,-100,39,54,16.0829,73.4073,32.8149,1,0
0000996418,6,0.1419,0.6002,-0.0555,0.7852,-743,66,312,-1987,483,451,-132,28,52,16.9370,73.3987,33.1594,1,0
0000996439,6,0.1403,0.6008,-0.0527,0.7853,-745,64,309,-1999,379,519,-96,19,44,17.4856,73.3899,33.3415,1,0
0000996460,6,0.1389,0.6012,-0.0502,0.7854,-747,66,308,-1999,355,511,-110,20,39,17.9432,73.3746,33.4734,1,0
0000996481,6,0.1369,0.6017,-0.0474,0.7855,-745,63,303,-1999,455,451,-126,23,31,18.3840,73.3727,33.5157,1,0
0000996502,6,0.1352,0.6022,-0.0453,0.7855,-749,63,303,-1971,415,535,-37,22,13,18.7159,73.4000,33.5389,1,0
0000996523,6,0.1356,0.6028,-0.0452,0.7850,-749,63,303,-2007,223,619,38,25,2,18.9760,73.4589,33.8181,1,0
0000996544,6,0.1358,0.6034,-0.0452,0.7845,-747,65,301,-2015,215,591,-15,37,3,19.1420,73.5364,34.0055,1,0
0000996565,6,0.1348,0.6044,-0.0442,0.7840,-752,63,297,-1999,387,511,-64,51,5,19.4293,73.6472,34.1271,1,0
0000996586,6,0.1335,0.6057,-0.0428,0.7833,-752,61,290,-1971,399,459,-68,60,2,19.8114,73.7867,34.2798,1,0
0000996607,6,0.1320,0.6073,-0.0415,0.7823,-754,58,285,-2027,331,427,-58,56,-5,20.2237,73.9816,34.4532,1,0
0000996628,6,0.1304,0.6085,-0.0403,0.7818,-757,56,282,-2011,231,419,-81,43,-9,20.4572,74.1225,34.4547,1,0
0000996649,6,0.1283,0.6093,-0.0389,0.7815,-757,56,282,-2027,431,395,-98,31,-11,20.5605,74.2332,34.2704,1,0
0000996670,6,0.1267,0.6102,-0.0382,0.7812,-757,48,278,-1951,611,367,-23,28,-22,20.6080,74.3501,34.1188,1,0
0000996691,6,0.1274,0.6108,-0.0397,0.7805,-758,48,277,-2019,459,515,110,31,-44,20.4860,74.4713,34.1851,1,0
0000996712,6,0.1293,0.6118,-0.0434,0.7791,-757,46,274,-2043,395,547,121,44,-66,20.1173,74.7151,34.2692,1,0
0000996733,6,0.1307,0.6131,-0.0468,0.7777,-760,45,270,-2039,403,535,132,57,-83,19.7237,74.9819,34.2764,1,0
0000996754,6,0.1325,0.6145,-0.0512,0.7760,-760,45,270,-2043,399,479,181,68,-101,19.1967,75.3102,34.2477,1,0
0000996775,6,0.1354,0.6161,-0.0568,0.7739,-760,41,263,-2055,391,547,247,75,-111,18.5940,75.6809,34.3400,1,0
0000996796,6,0.1391,0.6179,-0.0634,0.7712,-763,38,259,-2043,403,547,285,105,-128,17.9737,76.1121,34.5624,1,0
0000996817,6,0.1437,0.6212,-0.0720,0.7670,-764,36,247,-1991,635,295,255,155,-145,17.3281,76.8083,34.9929,1,0
0000996838,6,0.1458,0.6247,-0.0782,0.7631,-769,26,236,-1899,147,75,230,159,-158,16.8638,77.4943,35.2083,1,0
0000996859,6,0.1480,0.6277,-0.0844,0.7596,-768,18,227,-1919,163,-139,171,112,-145,16.2127,78.1114,35.2303,1,0
0000996880,6,0.1472,0.6295,-0.0884,0.7578,-768,18,227,-1951,507,-271,49,26,-145,15.0033,78.5495,34.2812,1,0
0000996901,6,0.1463,0.6292,-0.0930,0.7576,-768,6,229,-1963,447,-39,113,-66,-156,12.7619,78.7181,32.3463,1,0
0000996922,6,0.1454,0.6269,-0.1001,0.7588,-761,-4,239,-2023,291,63,94,-143,-168,8.9125,78.6841,29.0036,1,0
0000996943,6,0.1429,0.6240,-0.1049,0.7610,-752,-16,253,-1975,255,43,10,-187,-173,5.3564,78.4619,25.6485,1,0
0000996964,6,0.1389,0.6205,-0.1090,0.7641,-740,-32,272,-1983,299,23,-31,-238,-179,1.5982,78.0906,21.8991,1,0
0000996985,6,0.1343,0.6159,-0.1132,0.7680,-740,-32,272,-1991,267,51,-35,-294,-187,357.7533,77.5272,18.0331,1,0
0000997006,6,0.1291,0.6099,-0.1174,0.7730,-724,-52,296,-1999,131,79,-86,-368,-196,353.9726,76.7225,14.1844,1,0
0000997027,6,0.1204,0.6011,-0.1216,0.7806,-708,-73,326,-2087,-15,191,-153,-430,-182,349.6897,75.4115,9.5589,1,0
0000997048,6,0.1128,0.5925,-0.1237,0.7880,-683,-90,357,-2127,-51,383,-171,-481,-150,347.0719,74.0839,6.5165,1,0
0000997069,6,0.1054,0.5831,-0.1253,0.7957,-661,-106,394,-2227,-91,679,-165,-500,-121,345.1492,72.6325,4.1524,1,0
0000997090,6,0.0985,0.5733,-0.1268,0.8034,-661,-106,394,-2387,-43,947,-149,-499,-117,343.6894,71.1315,2.2834,1,0
0000997111,6,0.0910,0.5639,-0.1284,0.8107,-632,-121,425,-2463,19,887,-222,-461,-173,342.3123,69.6719,0.4536,1,0
0000997132,6,0.0794,0.5535,-0.1307,0.8187,-605,-145,454,-2319,395,703,-202,-434,-206,340.3628,67.9725,-2.2292,1,0
0000997153,6,0.0715,0.5453,-0.1351,0.8242,-572,-171,477,-2359,655,963,-83,-402,-284,338.5757,66.6544,-4.2677,1,0
0000997174,6,0.0652,0.5382,-0.1430,0.8280,-540,-197,498,-2159,519,1007,56,-335,-366,336.3030,65.4970,-6.3626,1,0
0000997195,6,0.0609,0.5315,-0.1539,0.8307,-508,-219,513,-2063,355,963,121,-287,-402,333.7885,64.4019,-8.2909,1,0
0000997216,6,0.0563,0.5255,-0.1643,0.8329,-508,-219,513,-2075,207,955,79,-287,-370,331.4185,63.3631,-10.1334,1,0
0000997237,6,0.0505,0.5178,-0.1757,0.8357,-472,-240,528,-1967,47,803,67,-294,-332,329.0124,62.0399,-12.0122,1,0
0000997258,6,0.0455,0.5109,-0.1838,0.8385,-437,-257,547,-1683,271,1455,33,-351,-315,327.4650,60.8677,-13.2487,1,0
0000997279,6,0.0408,0.5015,-0.1919,0.8426,-391,-270,572,-2127,99,1459,99,-471,-285,326.2967,59.4066,-14.0594,1,0
0000997300,6,0.0369,0.4888,-0.1998,0.8484,-338,-273,612,-1859,411,1631,203,-642,-250,325.5843,57.5774,-14.3388,1,0
0000997321,6,0.0373,0.4716,-0.2098,0.8557,-338,-273,612,-1679,167,1799,505,-772,-194,325.2678,55.3550,-13.6358,1,0
0000997342,6,0.0456,0.4441,-0.2243,0.8662,-268,-249,667,-1599,-359,1839,641,-858,-123,325.4143,52.1741,-11.3083,1,0
0000997363,6,0.0531,0.4199,-0.2341,0.8752,-195,-212,730,-1387,-783,1903,561,-893,-36,325.8160,49.4545,-9.1767,1,0
0000997384,6,0.0575,0.3970,-0.2390,0.8843,-121,-178,776,-1251,-851,1923,304,-846,80,326.5446,46.8563,-7.3957,1,0
0000997405,6,0.0565,0.3768,-0.2380,0.8934,-54,-164,815,-1131,-991,1799,-37,-774,206,327.5842,44.4397,-6.3057,1,0
0000997426,6,0.0511,0.3591,-0.2324,0.9024,7,-167,841,-971,-911,1667,-242,-729,265,328.8820,42.2158,-5.7860,1,0
0000997447,6,0.0393,0.3398,-0.2215,0.9132,7,-167,841,-823,-875,1431,-344,-669,285,330.6199,39.6513,-5.8657,1,0
0000997468,6,0.0304,0.3261,-0.2122,0.9207,58,-183,860,-747,-927,1219,-289,-605,286,331.9864,37.8338,-5.9917,1,0
0000997489,6,0.0240,0.3135,-0.2035,0.9272,103,-189,879,-671,-1143,1131,-159,-519,295,333.3058,36.2428,-5.9128,1,0
0000997510,6,0.0202,0.3030,-0.1948,0.9326,137,-190,891,-659,-1271,1175,-120,-376,325,334.6321,34.9695,-5.6236,1,0
0000997531,6,0.0165,0.2943,-0.1829,0.9379,151,-198,899,-575,-1311,1091,-220,-243,346,336.3109,33.9179,-5.3043,1,0
0000997552,6,0.0101,0.2918,-0.1715,0.9409,151,-198,899,-543,-1191,1023,-332,-111,352,337.6559,33.5410,-5.5834,1,0
0000997573,6,0.0035,0.2928,-0.1601,0.9427,150,-215,895,-499,-1107,1051,-382,38,332,338.9041,33.5811,-6.0076,1,0
0000997594,6,-0.0047,0.2986,-0.1486,0.9427,127,-239,887,-479,-943,891,-432,225,310,340.0021,34.1623,-6.7793,1,0
0000997615,6,-0.0132,0.3088,-0.1373,0.9411,84,-269,865,-491,-671,891,-442,440,289,340.9433,35.2845,-7.7216,1,0
0000997636,6,-0.0206,0.3274,-0.1247,0.9364,18,-292,839,-839,-339,899,-350,627,258,341.8690,37.4419,-8.7110,1,0
0000997657,6,-0.0224,0.3465,-0.1174,0.9304,18,-292,839,-995,-471,1323,-134,786,194,342.2729,39.7517,-9.2154,1,0
0000997678,6,-0.0204,0.3684,-0.1134,0.9225,-61,-297,807,-1251,-443,1515,-79,927,127,342.3003,42.4539,-9.4530,1,0
0000997699,6,-0.0195,0.3931,-0.1104,0.9126,-151,-302,763,-1463,-311,1975,-126,1039,83,341.9867,45.4949,-10.0476,1,0
0000997720,6,-0.0217,0.4199,-0.1067,0.9010,-245,-318,703,-1607,199,1923,-302,1115,47,341.3697,48.7644,-11.2636,1,0
0000997741,6,-0.0246,0.4538,-0.1033,0.8848,-336,-335,638,-1979,455,1779,-164,1111,4,340.1065,52.9293,-13.1659,1,0
0000997762,6,-0.0239,0.4799,-0.1034,0.8709,-417,-342,573,-2275,903,1647,-21,1106,-32,338.6075,56.1992,-14.6569,1,1
0000997783,6,-0.0175,0.5043,-0.1068,0.8567,-417,-342,573,-2479,1095,1403,311,1058,-21,336.8187,59.3502,-15.6765,1,1
0000997804,6,-0.0009,0.5247,-0.1152,0.8435,-485,-324,524,-2443,999,1067,756,928,5,335.2037,62.2392,-15.2483,1,1
0000997825,6,0.0225,0.5398,-0.1276,0.8317,-539,-278,497,-2415,715,819,984,741,19,333.9508,64.6524,-13.5598,1,1
0000997846,6,0.0528,0.5524,-0.1429,0.8196,-577,-225,479,-2383,475,735,908,553,78,333.2386,66.9981,-10.5277,1,1
0000997867,6,0.0725,0.5598,-0.1506,0.8116,-609,-182,464,-1807,355,395,625,429,138,333.5235,68.5166,-7.9985,1,1
0000997888,6,0.0860,0.5654,-0.1531,0.8059,-609,-182,464,-2431,-1855,819,297,354,162,334.5255,69.6548,-5.6944,1,1
0000997909,6,0.0794,0.5757,-0.1394,0.8018,-632,-165,435,-1979,-127,263,-1121,419,284,336.1150,70.9536,-5.8390,1,1
0000997930,6,0.0584,0.5856,-0.1105,0.8009,-662,-191,389,-2279,2007,-591,-1113,199,386,339.4608,71.9763,-6.6520,1,1
0000997951,6,0.0569,0.5876,-0.0988,0.8011,-674,-179,384,-2595,407,-351,356,-31,143,342.4796,72.3020,-4.7262,1,1
0000997972,6,0.0757,0.5826,-0.1105,0.8016,-674,-134,416,-2811,-315,375,981,-163,50,343.3095,71.9553,-1.3669,1,1
0000997993,6,0.0937,0.5762,-0.1223,0.8027,-662,-100,438,-1847,-79,947,681,-177,78,343.9155,71.4197,1.7183,1,1
0000998014,6,0.1034,0.5713,-0.1269,0.8043,-662,-100,438,-1715,267,751,265,-131,106,344.7359,70.9361,3.7434,1,1
0000998035,6,0.1082,0.5682,-0.1268,0.8058,-660,-82,451,-1867,635,659,153,-90,124,345.8233,70.5946,5.2361,1,1
0000998056,6,0.1168,0.5643,-0.1289,0.8071,-658,-60,464,-1923,339,811,371,-91,100,346.9790,70.2049,7.2972,1,1
0000998077,6,0.1275,0.5607,-0.1338,0.8071,-658,-31,474,-1935,-219,1171,445,-60,94,347.7346,69.9282,9.3637,1,1
0000998098,6,0.1363,0.5589,-0.1365,0.8065,-660,-7,479,-1911,-95,1099,261,17,119,348.6499,69.8297,11.2482,1,1
0000998119,6,0.1416,0.5591,-0.1356,0.8056,-660,-7,479,-1987,219,751,84,85,142,349.9131,69.9229,12.8746,1,1
0000998140,6,0.1449,0.5605,-0.1328,0.8045,-665,6,473,-2063,667,523,50,95,129,351.3369,70.1122,14.3354,1,1
0000998161,6,0.1498,0.5620,-0.1309,0.8029,-674,21,469,-2035,427,583,115,86,100,352.8524,70.3283,16.0928,1,1
0000998182,6,0.1534,0.5632,-0.1301,0.8015,-678,33,461,-1995,375,587,66,88,76,353.8465,70.5105,17.3130,1,1
0000998203,6,0.1555,0.5647,-0.1288,0.8002,-685,41,454,-1999,367,539,25,89,65,354.7097,70.7041,18.2372,1,1
0000998224,6,0.1574,0.5662,-0.1276,0.7990,-685,41,454,-1923,347,611,42,85,55,355.4903,70.9005,19.0714,1,1
0000998245,6,0.1595,0.5677,-0.1267,0.7976,-688,47,447,-1935,195,759,50,91,59,356.2693,71.0925,19.9496,1,1
0000998266,6,0.1617,0.5698,-0.1250,0.7959,-695,54,439,-1987,127,699,-23,105,65,357.3642,71.3578,21.0688,1,1
0000998287,6,0.1611,0.5722,-0.1217,0.7949,-699,56,429,-1995,371,511,-121,114,66,358.3361,71.5999,21.7117,1,1
0000998308,6,0.1600,0.5747,-0.1181,0.7938,-705,56,422,-1943,583,455,-100,111,55,359.3204,71.8509,22.2930,1,1
0000998329,6,0.1602,0.5769,-0.1162,0.7925,-710,58,413,-1951,367,631,17,105,35,0.1256,72.0996,22.9463,1,1
0000998350,6,0.1613,0.5790,-0.1153,0.7908,-710,58,413,-2019,215,543,6,110,29,0.8506,72.3635,23.6834,1,1
0000998371,6,0.1613,0.5818,-0.1133,0.7891,-715,58,404,-1983,383,451,-61,106,27,1.7345,72.6971,24.3878,1,1
0000998392,6,0.1606,0.5840,-0.1112,0.7879,-720,58,396,-1931,431,407,-63,96,24,2.4155,72.9437,24.8343,1,1
0000998413,6,0.1603,0.5859,-0.1097,0.7868,-724,58,387,-1983,375,511,-43,83,20,3.0173,73.1571,25.2669,1,1
0000998434,6,0.1595,0.5877,-0.1079,0.7858,-728,57,380,-1991,287,467,-77,79,18,3.5716,73.3532,25.6077,1,1
0000998455,6,0.1575,0.5900,-0.1051,0.7849,-728,57,380,-1995,351,439,-112,71,16,4.2417,73.5848,25.8690,1,1
0000998476,6,0.1558,0.5915,-0.1030,0.7844,-729,53,374,-1987,383,403,-87,57,10,4.6539,73.7389,25.9538,1,1
0000998497,6,0.1547,0.5927,-0.1017,0.7839,-735,51,370,-2003,359,459,-49,44,1,4.9541,73.8672,26.0587,1,0
0000998518,6,0.1538,0.5937,-0.1009,0.7834,-734,49,365,-2003,347,499,-39,41,-6,5.0974,73.9922,26.0607,1,0
0000998539,6,0.1530,0.5948,-0.1003,0.7828,-737,46,361,-2015,291,535,-42,46,-13,5.2129,74.1272,26.0499,1,0
0000998560,6,0.1516,0.5962,-0.0996,0.7820,-738,43,355,-1995,307,495,-47,49,-17,5.2905,74.3191,25.9486,1,0
0000998581,6,0.1503,0.5975,-0.0991,0.7814,-738,43,355,-1999,359,459,-49,51,-24,5.3181,74.4864,25.8246,1,0
0000998602,6,0.1488,0.5988,-0.0986,0.7807,-739,37,352,-1991,379,407,-59,45,-29,5.2493,74.6611,25.5854,1,0
0000998623,6,0.1471,0.6000,-0.0983,0.7802,-740,33,348,-1991,275,463,-53,37,-37,5.0743,74.8263,25.2394,1,0
0000998644,6,0.1453,0.6010,-0.0980,0.7798,-742,25,343,-2015,291,503,-75,32,-43,4.8016,74.9717,24.7862,1,0
0000998665,6,0.1419,0.6024,-0.0973,0.7794,-741,17,338,-2011,255,491,-94,30,-51,4.3282,75.1628,23.9703,1,0
0000998686,6,0.1390,0.6034,-0.0968,0.7792,-741,17,338,-1995,367,399,-106,26,-64,3.8087,75.3110,23.1627,1,0
0000998707,6,0.1356,0.6045,-0.0965,0.7790,-743,6,337,-1979,463,315,-101,17,-77,3.0776,75.4683,22.1259,1,0
0000998728,6,0.1324,0.6051,-0.0969,0.7791,-743,-3,335,-2011,383,279,-80,-7,-92,2.1129,75.5741,20.9254,1,0
0000998749,6,0.1294,0.6052,-0.0982,0.7793,-738,-16,334,-2015,367,411,-20,-39,-118,0.8035,75.6298,19.4756,1,0
0000998770,6,0.1267,0.6046,-0.1020,0.7797,-736,-27,339,-2031,391,543,32,-51,-144,358.6592,75.6325,17.4180,1,0
0000998791,6,0.1249,0.6041,-0.1063,0.7799,-729,-42,341,-2047,599,535,46,-42,-176,356.5710,75.6372,15.5382,1,0
0000998812,6,0.1224,0.6039,-0.1113,0.7797,-729,-42,341,-1863,579,299,72,-45,-216,354.0316,75.6833,13.2062,1,0
0000998833,6,0.1216,0.6027,-0.1183,0.7797,-724,-56,346,-2027,47,311,136,-85,-219,351.2139,75.6113,10.9069,1,0
0000998854,6,0.1181,0.6014,-0.1235,0.7804,-713,-75,352,-2019,435,167,-32,-103,-216,348.3591,75.4516,8.1897,1,0
0000998875,6,0.1144,0.5984,-0.1309,0.7821,-704,-89,367,-1939,151,255,124,-184,-232,344.7957,75.0171,4.9443,1,0
0000998896,6,0.1118,0.5942,-0.1381,0.7844,-690,-106,386,-2031,143,195,65,-242,-240,341.8610,74.3922,2.4133,1,0
0000998917,6,0.1076,0.5893,-0.1442,0.7876,-690,-106,386,-2127,111,371,15,-287,-226,339.1837,73.5995,-0.0921,1,0
0000998938,6,0.1028,0.5837,-0.1493,0.7915,-670,-124,407,-2275,47,487,-40,-304,-210,336.9847,72.6785,-2.2380,1,0
0000998959,6,0.0964,0.5781,-0.1531,0.7957,-651,-143,428,-2283,267,483,-113,-326,-183,335.1248,71.7002,-4.2866,1,0
0000998980,6,0.0882,0.5704,-0.1557,0.8016,-628,-161,448,-2491,103,503,-146,-348,-128,333.6390,70.3919,-6.1989,1,0
0000999001,6,0.0809,0.5634,-0.1562,0.8072,-606,-179,471,-2395,27,643,-225,-390,-107,333.0266,69.2087,-7.3495,1,0
0000999022,6,0.0715,0.5565,-0.1539,0.8133,-579,-198,487,-2347,111,715,-344,-389,-40,332.8815,68.0114,-8.4331,1,0
0000999043,6,0.0609,0.5500,-0.1492,0.8195,-579,-198,487,-2283,223,771,-433,-370,-30,333.1319,66.8650,-9.4194,1,0
0000999064,6,0.0482,0.5440,-0.1441,0.8252,-554,-223,500,-1895,307,1411,-471,-393,-79,333.1877,65.7415,-10.8270,1,0
0000999085,6,0.0317,0.5326,-0.1390,0.8343,-519,-252,519,-1799,851,1851,-423,-622,-98,333.2970,63.8308,-12.4591,1,0
0000999106,6,0.0202,0.5156,-0.1375,0.8455,-462,-273,572,-1787,1075,1851,-214,-923,-113,333.8017,61.3338,-12.9794,1,0
0000999127,6,0.0161,0.4913,-0.1417,0.8592,-377,-267,649,-1675,551,2035,240,-1153,-138,334.4890,58.0836,-12.1826,1,0
0000999148,6,0.0170,0.4616,-0.1495,0.8742,-377,-267,649,-1691,-47,2043,291,-1290,-126,335.0963,54.3075,-10.6894,1,0
0000999169,6,0.0157,0.4302,-0.1556,0.8891,-276,-257,731,-1503,-223,1907,180,-1308,-105,335.6568,50.3357,-9.5483,1,0
0000999190,6,0.0101,0.3907,-0.1596,0.9065,-168,-252,800,-1431,-319,1791,47,-1303,-64,336.3749,45.3681,-8.7179,1,0
0000999211,6,0.0050,0.3593,-0.1619,0.9191,-56,-249,857,-1247,-371,1503,48,-1277,-71,336.9034,41.4565,-8.2254,1,0
0000999232,6,0.0009,0.3284,-0.1648,0.9300,53,-237,906,-1087,-715,1327,143,-1212,-87,337.2644,37.6760,-7.7322,1,0
0000999253,6,0.0002,0.2992,-0.1690,0.9391,53,-237,906,-947,-911,1251,260,-1050,-116,337.4460,34.2007,-6.9959,1,1
0000999274,6,0.0011,0.2734,-0.1741,0.9460,153,-217,944,-895,-1123,1099,301,-921,-151,337.3942,31.1768,-6.2513,1,1
0000999295,6,0.0037,0.2467,-0.1828,0.9517,236,-196,973,-839,-1215,1087,284,-725,-220,336.9029,28.0874,-5.4102,1,1
0000999316,6,0.0054,0.2294,-0.1910,0.9544,305,-177,991,-803,-1303,1091,235,-571,-276,336.2253,26.1040,-4.9388,1,1
0000999337,6,0.0054,0.2172,-0.1997,0.9555,352,-170,1000,-803,-1339,1047,141,-380,-316,335.3355,24.6552,-4.8236,1,1
0000999358,6,0.0031,0.2106,-0.2084,0.9551,375,-178,1001,-591,-1231,1055,-29,-133,-344,334.2954,23.8001,-5.1274,1,1
0000999379,6,-0.0009,0.2095,-0.2169,0.9534,375,-178,1001,-571,-1071,959,-110,69,-355,333.1602,23.5256,-5.7933,1,1
0000999400,6,-0.0054,0.2156,-0.2278,0.9495,375,-196,999,-647,-847,979,-51,264,-372,331.5708,24.0122,-6.8226,1,1
0000999421,6,-0.0044,0.2250,-0.2374,0.9450,350,-203,993,-739,-723,995,86,451,-371,330.1722,25.0288,-7.3015,1,1
0000999442,6,0.0011,0.2379,-0.2476,0.9392,302,-196,986,-819,-775,1211,233,619,-359,328.7016,26.5733,-7.4336,1,1
0000999463,6,0.0100,0.2544,-0.2577,0.9321,230,-189,976,-991,-919,1475,231,795,-328,327.2129,28.6415,-7.3575,1,1
0000999484,6,0.0172,0.2759,-0.2652,0.9237,230,-189,976,-1167,-843,1851,55,966,-254,325.8018,31.2516,-7.6989,1,1
0000999505,6,0.0211,0.3103,-0.2686,0.9117,140,-200,947,-1311,-715,1879,-245,1156,-113,324.2999,35.2452,-9.0276,1,1
0000999526,6,0.0203,0.3427,-0.2656,0.9009,29,-232,901,-1451,-547,1799,-473,1280,-5,323.3326,38.9160,-10.7724,1,1
0000999547,6,0.0155,0.3796,-0.2575,0.8885,-90,-282,824,-1535,-111,1727,-708,1426,102,322.4139,43.0389,-13.2866,1,1
0000999568,6,0.0097,0.4191,-0.2447,0.8743,-219,-327,733,-1879,499,1691,-687,1484,271,321.5725,47.5276,-16.1767,1,1
0000999589,6,0.0114,0.4644,-0.2273,0.8559,-219,-327,733,-2147,723,1471,-304,1384,383,320.8748,53.1380,-18.6260,1,1
0000999610,6,0.0234,0.4933,-0.2166,0.8421,-335,-324,648,-2375,459,1739,76,1221,440,320.8404,57.2489,-18.7861,1,1
0000999631,6,0.0390,0.5171,-0.2073,0.8295,-432,-290,578,-2271,-11,1799,126,1066,467,321.3223,60.9334,-17.9456,1,1
0000999652,6,0.0495,0.5381,-0.1945,0.8187,-504,-259,507,-2015,-55,1595,-236,910,495,322.4771,64.1874,-17.1332,1,1
0000999673,6,0.0497,0.5571,-0.1748,0.8103,-564,-252,441,-1831,39,1387,-747,689,515,324.3756,66.9590,-16.9783,1,1
0000999694,6,0.0393,0.5778,-0.1438,0.8024,-609,-253,373,-1203,1243,1327,-992,587,504,327.4770,69.8250,-17.4058,1,1
0000999715,6,0.0291,0.5908,-0.1163,0.7978,-609,-253,373,-2163,619,275,-835,413,572,331.1708,71.7190,-16.8762,1,1
0000999736,6,0.0270,0.5997,-0.0974,0.7938,-647,-239,327,-2179,475,83,-410,363,449,334.9784,73.2050,-14.8198,1,1
0000999757,6,0.0289,0.6061,-0.0852,0.7903,-674,-214,299,-3635,-1015,-143,-66,195,320,338.3522,74.3434,-12.3080,1,1
0000999778,6,0.0359,0.6071,-0.0848,0.7893,-682,-194,302,-1723,107,551,309,48,111,340.0363,74.6689,-10.0788,1,1
0000999799,6,0.0522,0.6073,-0.0888,0.7877,-690,-156,308,-1863,-167,1071,467,63,236,342.7829,75.0415,-5.6751,1,1
0000999820,6,0.0600,0.6078,-0.0880,0.7869,-690,-156,308,-1827,179,611,40,74,187,345.0310,75.2704,-2.8556,1,1
0000999841,6,0.0608,0.6097,-0.0810,0.7862,-699,-139,304,-1999,147,395,-227,98,241,347.6746,75.5689,-0.7249,1,1
0000999862,6,0.0589,0.6118,-0.0710,0.7856,-712,-127,294,-2147,127,259,-292,81,239,350.7011,75.8415,1.3203,1,1
0000999883,6,0.0595,0.6128,-0.0638,0.7854,-717,-113,288,-1931,243,375,53,25,204,353.5317,75.9778,3.6098,1,1
0000999904,6,0.0680,0.6124,-0.0623,0.7852,-725,-90,296,-1991,231,547,257,-4,183,356.5673,75.9538,7.2142,1,1
0000999925,6,0.0758,0.6114,-0.0624,0.7852,-727,-69,299,-2023,319,447,201,-9,174,358.7750,75.8425,10.0766,1,1
0000999946,6,0.0816,0.6106,-0.0613,0.7854,-727,-69,299,-1995,495,363,128,-16,162,0.7615,75.7042,12.4519,1,1
0000999967,6,0.0870,0.6095,-0.0605,0.7857,-731,-49,306,-1995,479,355,161,-28,141,2.5336,75.5269,14.6017,1,1
0000999988,6,0.0933,0.6081,-0.0614,0.7860,-731,-31,314,-2059,467,411,266,-49,103,3.8381,75.3112,16.5033,1,0
0001000009,6,0.1030,0.6057,-0.0653,0.7863,-732,-11,321,-1991,447,595,333,-61,74,4.8798,75.0084,18.6676,1,0
0001000030,6,0.1108,0.6039,-0.0696,0.7863,-731,8,326,-1971,423,687,325,-40,53,5.3388,74.8068,20.1247,1,0
0001000051,6,0.1174,0.6028,-0.0734,0.7858,-731,8,326,-2027,435,543,264,-16,35,5.6947,74.6979,21.3371,1,0
0001000072,6,0.1232,0.6020,-0.0771,0.7852,-731,20,333,-2051,291,575,273,2,11,5.9047,74.6484,22.3405,1,0
0001000093,6,0.1290,0.6016,-0.0814,0.7841,-733,31,333,-2015,383,511,277,21,-11,5.9648,74.6777,23.2317,1,0
0001000114,6,0.1359,0.6015,-0.0873,0.7823,-731,41,333,-1979,243,447,278,24,-15,5.8776,74.7840,24.2089,1,0
0001000135,6,0.1407,0.6014,-0.0915,0.7811,-734,49,333,-1995,351,315,223,13,-16,5.7761,74.8642,24.8467,1,0
0001000156,6,0.1451,0.6010,-0.0955,0.7801,-732,56,334,-1971,395,315,235,0,-18,5.6126,74.9003,25.3747,1,0
0001000177,6,0.1499,0.6003,-0.1000,0.7792,-732,56,334,-2023,403,347,272,-24,-27,5.3212,74.9108,25.8613,1,0
0001000198,6,0.1551,0.5991,-0.1051,0.7785,-732,64,340,-1971,395,371,272,-36,-30,4.8567,74.8668,26.2473,1,0
0001000219,6,0.1605,0.5972,-0.1108,0.7780,-729,71,342,-2011,267,371,201,-52,-23,4.2083,74.7660,26.5307,1,0
0001000240,6,0.1630,0.5957,-0.1139,0.7782,-727,77,350,-1991,391,379,133,-66,-20,3.6608,74.6402,26.4566,1,0
0001000261,6,0.1656,0.5938,-0.1171,0.7787,-722,83,356,-1983,391,383,168,-82,-23,3.0407,74.4626,26.3162,1,0
0001000282,6,0.1690,0.5914,-0.1213,0.7791,-722,83,356,-2011,295,551,211,-91,-29,2.3123,74.2633,26.2264,1,0
0001000303,6,0.1722,0.5891,-0.1254,0.7795,-720,88,365,-2003,195,583,177,-85,-29,1.5570,74.0583,26.0923,1,0
0001000324,6,0.1744,0.5867,-0.1287,0.7803,-715,92,371,-1979,347,499,82,-78,-22,0.7649,73.8248,25.7663,1,0
0001000345,6,0.1756,0.5848,-0.1309,0.7811,-711,93,377,-1959,391,559,95,-76,-20,0.1765,73.6371,25.4668,1,0
0001000366,6,0.1769,0.5832,-0.1331,0.7816,-709,96,383,-2015,331,643,80,-62,-22,359.6534,73.4745,25.2418,1,0
0001000387,6,0.1775,0.5821,-0.1347,0.7820,-709,96,383,-2015,311,651,36,-28,-26,359.1977,73.3746,24.9769,1,0
0001000408,6,0.1776,0.5816,-0.1361,0.7821,-705,94,384,-1999,339,619,29,-11,-31,358.7239,73.3496,24.6351,1,0
0001000429,6,0.1776,0.5816,-0.1374,0.7819,-708,93,386,-1967,327,543,28,0,-38,358.3578,73.3836,24.3746,1,0
0001000450,6,0.1773,0.5817,-0.1385,0.7817,-705,89,386,-1987,419,527,7,3,-43,357.9442,73.4408,24.0224,1,0
0001000471,6,0.1766,0.5821,-0.1395,0.7814,-707,86,386,-1983,411,471,5,4,-54,357.4748,73.5179,23.5825,1,0
0001000492,6,0.1759,0.5823,-0.1412,0.7810,-705,81,384,-1975,395,495,42,-7,-77,356.8098,73.6000,22.9946,1,0
0001000513,6,0.1757,0.5823,-0.1445,0.7805,-705,81,384,-1959,279,551,60,-12,-86,355.7121,73.6838,22.1530,1,0
0001000534,6,0.1748,0.5824,-0.1468,0.7802,-704,75,386,-1991,295,563,0,-2,-90,354.7827,73.7642,21.3412,1,0
0001000555,6,0.1724,0.5832,-0.1481,0.7799,-702,66,383,-2063,327,603,-64,11,-97,353.8266,73.8821,20.2901,1,0
0001000576,6,0.1687,0.5845,-0.1486,0.7796,-703,53,380,-2043,315,531,-128,29,-118,352.7724,74.0566,18.9625,1,0
0001000597,6,0.1635,0.5865,-0.1487,0.7792,-703,33,377,-2019,391,547,-160,41,-138,351.5124,74.2860,17.2731,1,0
0001000618,6,0.1571,0.5891,-0.1495,0.7784,-703,33,377,-2047,391,531,-127,46,-161,349.6465,74.6066,14.9208,1,0
0001000639,6,0.1522,0.5912,-0.1514,0.7774,-701,13,369,-2071,659,311,-98,45,-192,347.7519,74.8730,12.7688,1,0
0001000660,6,0.1472,0.5934,-0.1541,0.7762,-701,-8,364,-1931,443,283,-78,29,-216,345.4378,75.1301,10.2494,1,0
0001000681,6,0.1419,0.5947,-0.1569,0.7756,-696,-31,361,-2015,67,167,-133,-6,-205,342.9724,75.2546,7.5710,1,0
0001000702,6,0.1342,0.5958,-0.1575,0.7760,-692,-56,360,-1931,43,227,-247,-50,-178,340.6267,75.2356,4.6433,1,0
0001000723,6,0.1237,0.5957,-0.1571,0.7779,-682,-81,363,-1995,123,235,-255,-111,-162,338.0718,74.9523,1.1759,1,0
0001000744,6,0.1158,0.5944,-0.1570,0.7801,-682,-81,363,-2099,-87,383,-229,-149,-148,336.2833,74.5380,-1.2664,1,0
0001000765,6,0.1074,0.5925,-0.1561,0.7830,-674,-104,369,-2259,-391,451,-305,-175,-121,334.8150,74.0233,-3.5014,1,0
0001000786,6,0.0968,0.5906,-0.1522,0.7866,-659,-126,374,-2487,-299,415,-461,-192,-76,333.9497,73.4351,-5.5530,1,0
0001000807,6,0.0835,0.5885,-0.1451,0.7910,-648,-153,382,-2627,-171,427,-595,-232,-25,333.6836,72.7836,-7.4953,1,0
0001000828,6,0.0653,0.5845,-0.1328,0.7978,-631,-179,388,-2579,-155,79,-669,-299,34,334.2772,71.7954,-9.4124,1,0
0001000849,6,0.0504,0.5797,-0.1221,0.8041,-631,-179,388,-2607,11,435,-685,-343,31,335.1732,70.8200,-10.6188,1,0
0001000870,6,0.0337,0.5743,-0.1108,0.8104,-613,-207,399,-2343,223,1067,-765,-380,8,335.9490,69.7722,-12.1393,1,0
0001000891,6,0.0154,0.5664,-0.0992,0.8180,-587,-243,411,-1823,551,2239,-787,-536,2,336.8476,68.3837,-13.6900,1,0
0001000912,6,-0.0032,0.5534,-0.0868,0.8284,-545,-278,443,-2187,707,1707,-770,-817,58,338.4107,66.3915,-14.6584,1,0
0001000933,6,-0.0229,0.5302,-0.0731,0.8444,-489,-305,499,-1755,839,2143,-499,-991,19,340.9060,63.1377,-14.9096,1,0
0001000954,6,-0.0318,0.5052,-0.0689,0.8597,-407,-322,574,-1715,243,1959,-184,-1208,-42,342.5870,59.7962,-14.3011,1,0
0001000975,6,-0.0378,0.4753,-0.0674,0.8764,-407,-322,574,-1427,39,1967,-89,-1350,-64,344.0609,55.8964,-13.4293,1,0
0001000996,6,-0.0425,0.4425,-0.0669,0.8933,-312,-333,659,-1315,-119,1935,-43,-1416,-79,345.3153,51.7008,-12.5891,1,0
0001001017,6,-0.0475,0.4086,-0.0668,0.9090,-202,-339,736,-1099,-251,1599,-53,-1385,-101,346.3041,47.4343,-12.0176,1,0
0001001038,6,-0.0529,0.3668,-0.0673,0.9263,-91,-347,802,-911,-351,1331,20,-1333,-108,347.2393,42.2618,-11.4891,1,0
0001001059,6,-0.0537,0.3346,-0.0691,0.9383,18,-338,857,-847,-491,1175,141,-1255,-113,347.8058,38.3556,-10.8126,1,0
0001001080,6,-0.0532,0.3045,-0.0719,0.9483,18,-338,857,-699,-543,931,197,-1133,-141,348.1467,34.7377,-10.1359,1,0
0001001101,6,-0.0502,0.2775,-0.0766,0.9563,117,-327,902,-747,-759,771,305,-927,-188,348.1916,31.5421,-9.3511,1,0
0001001122,6,-0.0462,0.2552,-0.0825,0.9622,202,-302,936,-755,-943,647,307,-715,-226,347.9789,28.9185,-8.6058,1,0
0001001143,6,-0.0414,0.2353,-0.0913,0.9667,265,-286,959,-767,-1047,695,287,-479,-263,347.3406,26.5808,-7.9023,1,1
0001001164,6,-0.0379,0.2263,-0.0996,0.9682,296,-273,974,-787,-1091,775,187,-222,-289,346.5430,25.5094,-7.5427,1,1
0001001185,6,-0.0368,0.2240,-0.1079,0.9679,296,-273,974,-847,-1043,831,117,19,-302,345.5749,25.1892,-7.5955,1,1
0001001206,6,-0.0357,0.2277,-0.1165,0.9661,300,-271,976,-867,-959,803,66,317,-310,344.4749,25.5725,-7.7822,1,1
0001001227,6,-0.0354,0.2378,-0.1252,0.9626,271,-274,972,-915,-795,1047,47,491,-310,343.2331,26.6763,-8.2094,1,1
0001001248,6,-0.0329,0.2579,-0.1359,0.9560,221,-277,960,-1091,-723,1243,98,743,-282,341.5616,28.9575,-8.7397,1,1
0001001269,6,-0.0282,0.2787,-0.1443,0.9491,144,-275,942,-1215,-795,1295,153,910,-257,340.1701,31.3909,-9.0299,1,1
0001001290,6,-0.0229,0.3029,-0.1520,0.9405,57,-277,914,-1511,-847,1623,114,1030,-226,338.7355,34.2530,-9.4071,1,1
0001001311,6,-0.0189,0.3295,-0.1580,0.9306,57,-277,914,-1699,-619,1751,10,1112,-187,337.2986,37.3961,-10.0996,1,1
0001001332,6,-0.0156,0.3655,-0.1628,0.9163,-41,-289,872,-1779,-455,1567,-50,1204,-120,335.4973,41.6602,-11.4008,1,1
0001001353,6,-0.0120,0.3959,-0.1648,0.9033,-142,-297,817,-1935,-291,1483,-33,1275,-53,334.0866,45.3361,-12.4990,1,1
0001001374,6,-0.0064,0.4272,-0.1652,0.8889,-250,-301,752,-2215,3,1271,24,1332,23,332.7337,49.2277,-13.5071,1,1
0001001395,6,0.0031,0.4579,-0.1650,0.8735,-352,-284,680,-2551,187,1443,186,1329,93,331.5139,53.2317,-14.0910,1,1
0001001416,6,0.0174,0.4865,-0.1657,0.8577,-352,-284,680,-2699,499,1287,431,1240,141,330.4572,57.1613,-14.0246,1,1
0001001437,6,0.0414,0.5154,-0.1695,0.8390,-442,-249,615,-2427,399,1155,641,1013,142,329.5467,61.4999,-12.7523,1,1
0001001458,6,0.0617,0.5306,-0.1746,0.8272,-508,-202,569,-2247,159,1043,627,725,125,329.2826,64.0626,-10.9735,1,1
0001001479,6,0.0765,0.5405,-0.1780,0.8187,-547,-166,538,-1995,131,927,392,483,105,329.3623,65.8269,-9.4275,1,1
0001001500,6,0.0853,0.5474,-0.1790,0.8130,-572,-149,517,-1939,-83,843,192,341,72,329.5763,67.0249,-8.4325,1,1
0001001521,6,0.0889,0.5536,-0.1781,0.8086,-588,-144,498,-1495,451,615,-95,236,83,329.6456,67.9787,-8.1773,1,1
0001001542,6,0.0904,0.5570,-0.1732,0.8072,-588,-144,498,-1763,711,1175,0,28,142,330.7571,68.5174,-7.3684,1,1
0001001563,6,0.0941,0.5556,-0.1701,0.8084,-595,-130,502,-2051,367,811,91,-43,201,332.3107,68.4833,-5.7684,1,1
0001001584,6,0.1001,0.5546,-0.1672,0.8090,-600,-107,504,-1863,91,903,90,42,220,334.1171,68.5558,-3.7027,1,1
0001001605,6,0.1027,0.5557,-0.1613,0.8091,-611,-91,498,-1959,339,807,-121,84,240,336.0377,68.8084,-2.0664,1,1
0001001626,6,0.1034,0.5581,-0.1535,0.8089,-619,-79,489,-2015,195,663,-128,126,227,338.0540,69.1584,-0.6608,1,1
0001001647,6,0.1066,0.5607,-0.1467,0.8079,-619,-79,489,-2415,-287,595,41,102,181,340.3151,69.6036,1.2866,1,1
0001001668,6,0.1119,0.5616,-0.1454,0.8068,-630,-61,485,-2463,31,467,191,71,127,341.5913,69.8462,2.8884,1,1
0001001689,6,0.1205,0.5614,-0.1470,0.8054,-636,-36,486,-1935,467,779,358,62,131,342.7452,70.0123,4.8906,1,1
0001001710,6,0.1305,0.5610,-0.1489,0.8038,-643,-7,485,-1811,-163,923,319,75,147,344.1051,70.1696,7.2493,1,1
0001001731,6,0.1369,0.5617,-0.1476,0.8024,-651,9,478,-2027,-323,731,52,104,170,345.6647,70.3803,9.2291,1,1
0001001752,6,0.1373,0.5643,-0.1400,0.8019,-656,14,470,-2107,599,423,-176,97,182,347.8634,70.6516,10.8075,1,1
0001001773,6,0.1387,0.5658,-0.1347,0.8016,-656,14,470,-1831,671,495,2,72,169,349.6578,70.7987,12.2708,1,1
0001001794,6,0.1432,0.5659,-0.1326,0.8010,-663,33,468,-1895,387,579,121,39,147,351.1571,70.8382,13.9741,1,1
0001001815,6,0.1469,0.5661,-0.1304,0.8006,-667,46,466,-2011,259,679,6,51,142,352.5571,70.8557,15.4899,1,1
0001001836,6,0.1476,0.5671,-0.1259,0.8005,-672,54,460,-1947,411,691,-117,72,136,353.9879,70.9234,16.6054,1,1
0001001857,6,0.1479,0.5688,-0.1204,0.8001,-673,60,454,-1975,315,643,-60,69,118,355.6842,71.0390,17.8617,1,1
0001001878,6,0.1489,0.5699,-0.1173,0.7996,-673,60,454,-1971,391,579,-30,65,103,356.8505,71.1258,18.8500,1,0
0001001899,6,0.1502,0.5709,-0.1146,0.7990,-681,68,451,-1947,315,607,-13,61,94,357.9214,71.2093,19.8004,1,0
0001001920,6,0.1513,0.5719,-0.1122,0.7984,-683,73,445,-1955,271,651,-27,59,86,358.8917,71.2880,20.6630,1,0
0001001941,6,0.1514,0.5729,-0.1093,0.7980,-689,79,441,-1975,435,531,-77,52,75,359.8152,71.3631,21.3532,1,0
0001001962,6,0.1513,0.5741,-0.1061,0.7977,-690,83,437,-1971,491,479,-32,39,63,0.7808,71.4354,22.0367,1,0
0001001983,6,0.1522,0.5746,-0.1049,0.7973,-690,83,437,-1939,423,571,19,30,50,1.3831,71.4753,22.6115,1,0
0001002004,6,0.1532,0.5750,-0.1040,0.7969,-692,87,435,-1975,387,603,0,31,40,1.8893,71.5071,23.1311,1,0
0001002025,6,0.1534,0.5757,-0.1028,0.7965,-694,90,433,-1967,355,623,-23,35,33,2.3223,71.5594,23.4798,1,0
0001002046,6,0.1535,0.5763,-0.1017,0.7962,-695,91,429,-1983,339,571,-17,34,26,2.7301,71.6198,23.8003,1,0
0001002067,6,0.1536,0.5772,-0.1005,0.7957,-697,95,426,-1983,287,559,-22,33,27,3.1695,71.6986,24.1464,1,0
0001002088,6,0.1532,0.5779,-0.0992,0.7955,-699,93,424,-1955,487,503,-49,30,27,3.5343,71.7557,24.3590,1,0
0001002109,6,0.1531,0.5784,-0.0982,0.7952,-699,93,424,-1903,463,543,-3,24,18,3.8414,71.8040,24.5699,1,0
0001002130,6,0.1538,0.5787,-0.0983,0.7948,-701,96,423,-1947,479,535,50,13,-3,3.9788,71.8458,24.7794,1,0
0001002151,6,0.1551,0.5788,-0.0996,0.7943,-700,98,420,-1971,443,599,103,9,-21,3.9391,71.8924,24.9532,1,0
0001002172,6,0.1577,0.5789,-0.1025,0.7934,-702,100,423,-1987,271,679,123,11,-33,3.6774,71.9740,25.1514,1,0
0001002193,6,0.1589,0.5791,-0.1047,0.7927,-701,101,420,-1999,271,599,61,21,-40,3.3796,72.0697,25.1346,1,0
0001002214,6,0.1590,0.5797,-0.1061,0.7921,-701,101,420,-1963,631,371,36,17,-49,3.0628,72.1892,24.9389,1,0
0001002235,6,0.1603,0.5799,-0.1089,0.7913,-703,98,420,-1907,591,499,195,0,-75,2.5570,72.3040,24.7725,1,0
0001002256,6,0.1640,0.5795,-0.1144,0.7901,-701,101,419,-2011,303,599,276,-5,-97,1.7700,72.3993,24.7473,1,0
0001002277,6,0.1689,0.5789,-0.1222,0.7883,-699,104,419,-1991,351,639,253,0,-107,0.5643,72.5542,24.6012,1,0
0001002298,6,0.1722,0.5787,-0.1282,0.7868,-700,104,420,-1963,311,599,234,9,-112,359.5378,72.7047,24.3578,1,0
0001002319,6,0.1749,0.5788,-0.1338,0.7852,-699,102,419,-1979,559,523,199,15,-117,358.5178,72.8875,24.0192,1,0
0001002340,6,0.1777,0.5790,-0.1397,0.7834,-699,102,419,-2007,511,567,249,21,-127,357.4218,73.0928,23.6535,1,0
0001002361,6,0.1825,0.5794,-0.1484,0.7804,-701,104,416,-2019,339,779,283,55,-140,355.9639,73.4276,23.3129,1,0
0001002382,6,0.1863,0.5808,-0.1550,0.7771,-701,102,409,-2035,231,867,264,104,-141,354.9318,73.8375,23.1464,1,0
0001002403,6,0.1899,0.5831,-0.1612,0.7732,-708,101,397,-2063,219,899,255,160,-137,354.0741,74.3751,23.1053,1,0
0001002424,6,0.1937,0.5869,-0.1667,0.7683,-715,98,379,-2111,247,787,230,223,-135,353.5497,75.0980,23.3339,1,0
0001002445,6,0.1965,0.5917,-0.1715,0.7628,-715,98,379,-2007,423,91,175,251,-161,353.1103,75.9572,23.5109,1,0
0001002466,6,0.1999,0.5973,-0.1781,0.7560,-724,91,360,-1827,179,-91,209,199,-153,352.2036,76.9886,23.4151,1,0
0001002487,6,0.2005,0.6006,-0.1823,0.7522,-728,84,344,-1911,499,-291,72,110,-153,351.0147,77.5997,22.6133,1,0
0001002508,6,0.1990,0.6026,-0.1857,0.7502,-731,70,341,-1959,303,-203,21,18,-151,349.2742,77.9720,21.0189,1,0
0001002529,6,0.1961,0.6027,-0.1887,0.7501,-727,56,346,-1955,351,-31,-39,-71,-150,347.0117,78.0147,18.7653,1,0
0001002550,6,0.1913,0.6018,-0.1909,0.7515,-719,37,355,-2015,247,71,-124,-147,-151,344.3849,77.8494,15.9292,1,0
0001002571,6,0.1833,0.5996,-0.1925,0.7549,-719,37,355,-1991,131,143,-196,-188,-142,341.1285,77.3651,12.1439,1,0
0001002592,6,0.1751,0.5971,-0.1925,0.7588,-710,17,370,-1991,171,91,-258,-243,-136,338.6884,76.7984,9.0293,1,0
0001002613,6,0.1662,0.5934,-0.1926,0.7637,-694,-6,391,-2059,179,-23,-245,-321,-140,336.3762,76.0044,5.9909,1,0
0001002634,6,0.1576,0.5874,-0.1939,0.7697,-676,-28,418,-2127,107,19,-192,-411,-149,334.2401,74.8967,3.2793,1,0
0001002655,6,0.1494,0.5796,-0.1964,0.7766,-648,-47,456,-2355,-11,371,-140,-492,-158,332.2771,73.5322,0.8857,1,0
0001002676,6,0.1397,0.5678,-0.2010,0.7859,-648,-47,456,-2435,11,563,-118,-520,-167,330.1860,71.5615,-1.5657,1,0
0001002697,6,0.1317,0.5587,-0.2040,0.7930,-621,-66,493,-2535,-55,879,-150,-487,-148,328.9087,70.0285,-3.2050,1,0
0001002718,6,0.1220,0.5508,-0.2057,0.7997,-591,-87,519,-2475,-163,943,-280,-440,-176,327.7580,68.5980,-4.9621,1,0
0001002739,6,0.1088,0.5446,-0.2053,0.8059,-563,-122,539,-2391,51,879,-439,-403,-177,326.6381,67.2788,-7.1726,1,0
0001002760,6,0.0942,0.5394,-0.2030,0.8118,-534,-156,553,-2271,371,743,-463,-372,-150,325.8250,66.0595,-9.3631,1,0
0001002781,6,0.0793,0.5320,-0.2011,0.8187,-534,-156,553,-2011,495,699,-283,-388,-124,325.2499,64.5537,-11.2990,1,0
0001002802,6,0.0717,0.5248,-0.2022,0.8237,-503,-184,570,-1851,471,895,-93,-385,-131,324.9413,63.3361,-12.0966,1,0
0001002823,6,0.0674,0.5168,-0.2059,0.8282,-472,-194,591,-1675,87,1647,36,-390,-152,324.5378,62.1078,-12.4873,1,0
0001002844,6,0.0630,0.5074,-0.2098,0.8334,-436,-205,617,-1871,-271,1679,-59,-468,-130,324.2573,60.7170,-12.7406,1,0
0001002865,6,0.0542,0.4968,-0.2105,0.8402,-390,-224,645,-1803,-119,1691,-297,-584,-87,324.3189,59.0560,-13.2871,1,0
0001002886,6,0.0394,0.4816,-0.2081,0.8504,-337,-249,675,-1635,0,1683,-341,-669,-47,324.9037,56.6741,-14.0461,1,0
0001002907,6,0.0284,0.4669,-0.2054,0.8597,-337,-249,675,-1499,-151,1719,-256,-742,-5,325.7438,54.5267,-14.2667,1,0
