Time(ms),Interval,Qx,Qy,Qz,Qw,Mx,My,Mz,Ax,Ay,Az,Rx,Ry,Rz,H1,P1,R1,H2,P2,R2,CalStable,MagTransient
0000979744,2,0.4290,-0.1975,-0.8695,0.1446,-1418,840,439,-1379,935,1175,1,1,8,215.5116,43.5457,40.1776,1,0
0000979765,2,0.4290,-0.1977,-0.8694,0.1449,-1419,838,437,-1371,955,1163,-1,0,12,215.5453,43.5254,40.1994,1,0
0000979786,2,0.4289,-0.1978,-0.8694,0.1453,-1418,844,438,-1375,959,1151,-3,3,17,215.5985,43.4989,40.2296,1,0
0000979807,2,0.4289,-0.1979,-0.8692,0.1458,-1416,844,437,-1375,959,1163,-2,6,14,215.6807,43.4695,40.2719,1,0
0000979828,2,0.4290,-0.1980,-0.8692,0.1461,-1416,844,437,-1387,963,1155,1,3,10,215.7277,43.4566,40.3034,1,0
0000979849,2,0.4289,-0.1982,-0.8691,0.1463,-1416,846,436,-1395,951,1151,3,0,12,215.7652,43.4350,40.3407,1,0
0000979870,2,0.4288,-0.1984,-0.8691,0.1465,-1414,847,438,-1395,959,1147,3,-2,9,215.7944,43.4102,40.3708,1,0
0000979891,2,0.4287,-0.1986,-0.8691,0.1467,-1414,848,437,-1395,975,1127,1,-3,5,215.8071,43.3881,40.3865,1,0
0000979912,2,0.4287,-0.1986,-0.8690,0.1467,-1414,848,437,-1399,975,1119,2,2,-3,215.8094,43.3884,40.3944,1,0
0000979933,2,0.4289,-0.1987,-0.8690,0.1464,-1414,847,437,-1395,1007,1119,10,4,-7,215.7993,43.4101,40.4072,1,0
0000979954,2,0.4291,-0.1990,-0.8689,0.1462,-1414,847,435,-1395,991,1119,21,5,-1,215.7983,43.4313,40.4598,1,0
0000979975,2,0.4294,-0.1997,-0.8686,0.1460,-1416,849,433,-1391,975,1127,31,9,8,215.8337,43.4417,40.5707,1,0
0000979996,2,0.4297,-0.2006,-0.8682,0.1461,-1412,852,430,-1363,939,1127,29,13,30,215.9238,43.4314,40.7317,1,0
0000980017,2,0.4299,-0.2018,-0.8676,0.1471,-1412,852,430,-1363,943,1127,18,15,55,216.1452,43.3674,40.9749,1,0
0000980038,2,0.4299,-0.2030,-0.8671,0.1487,-1409,858,425,-1335,955,1123,16,12,87,216.4185,43.2503,41.2096,1,0
0000980059,2,0.4295,-0.2047,-0.8665,0.1513,-1402,872,425,-1287,915,1139,15,0,137,216.8024,43.0253,41.5264,1,0
0000980080,2,0.4288,-0.2057,-0.8655,0.1571,-1387,889,427,-1255,891,1147,-18,-8,192,217.5726,42.6611,41.8655,1,0
0000980101,2,0.4272,-0.2072,-0.8649,0.1626,-1371,912,430,-1235,967,1119,-51,-10,229,218.2103,42.1937,42.1708,1,0
0000980122,2,0.4255,-0.2084,-0.8636,0.1725,-1371,912,430,-1163,971,1143,-50,0,269,219.4104,41.5246,42.5929,1,0
0000980143,2,0.4241,-0.2093,-0.8621,0.1818,-1349,939,435,-1115,1003,1207,-59,2,294,220.5448,40.9349,42.9911,1,0
0000980164,2,0.4218,-0.2110,-0.8612,0.1895,-1327,962,441,-1083,1063,1207,-87,-26,300,221.3823,40.2784,43.3031,1,0
0000980185,2,0.4191,-0.2112,-0.8603,0.1993,-1303,990,454,-1071,1063,1243,-107,-49,290,222.4008,39.5587,43.4632,1,0
0000980206,2,0.4155,-0.2119,-0.8602,0.2063,-1303,990,454,-1103,1175,1215,-105,-82,236,222.9866,38.8570,43.4912,1,0
0000980227,2,0.4111,-0.2121,-0.8602,0.2149,-1281,1007,470,-1031,1219,1155,-63,-113,189,223.6788,38.0252,43.4230,1,0
0000980248,2,0.4074,-0.2130,-0.8603,0.2204,-1265,1024,481,-979,1131,1203,-16,-134,161,224.0752,37.3758,43.4119,1,0
0000980269,2,0.4033,-0.2151,-0.8611,0.2228,-1252,1035,496,-955,1135,1283,-19,-149,116,224.0735,36.7739,43.3747,1,0
0000980290,2,0.3990,-0.2149,-0.8622,0.2264,-1242,1040,518,-931,1123,1307,-69,-187,72,224.1328,36.2062,43.0948,1,0
0000980311,2,0.3932,-0.2151,-0.8647,0.2269,-1242,1040,518,-891,1115,1275,-55,-251,20,223.6895,35.6114,42.6133,1,0
0000980332,2,0.3857,-0.2153,-0.8678,0.2278,-1235,1040,542,-1035,1115,1363,-17,-274,-3,223.1621,34.8388,42.0121,1,0
0000980353,2,0.3794,-0.2155,-0.8704,0.2282,-1228,1037,568,-1067,1063,1359,-23,-304,-22,222.6879,34.2048,41.5247,1,0
0000980374,2,0.3718,-0.2158,-0.8741,0.2260,-1224,1033,599,-939,1067,1331,-73,-333,-47,221.8001,33.5358,40.8675,1,0
0000980395,2,0.3640,-0.2141,-0.8779,0.2257,-1224,1033,599,-803,1087,1335,-103,-356,-71,221.0907,32.8544,40.0274,1,0
0000980416,2,0.3549,-0.2131,-0.8826,0.2226,-1221,1025,638,-759,1079,1323,-111,-410,-100,219.9830,32.1188,39.1074,1,0
0000980437,2,0.3429,-0.2107,-0.8888,0.2194,-1216,1009,684,-707,1095,1347,-106,-436,-149,218.6370,31.1349,37.8327,1,0
0000980458,2,0.3333,-0.2088,-0.8938,0.2156,-1216,990,727,-683,1107,1427,-76,-448,-194,217.4480,30.3790,36.8118,1,0
0000980479,2,0.3231,-0.2081,-0.8994,0.2084,-1216,969,770,-787,1135,1515,-49,-472,-226,215.8769,29.6308,35.8508,1,0
0000980500,2,0.3129,-0.2070,-0.9046,0.2023,-1216,969,770,-815,1099,1519,-42,-502,-256,214.4561,28.8371,34.8932,1,0
0000980521,2,0.3015,-0.2063,-0.9106,0.1934,-1218,944,816,-763,1035,1499,-64,-532,-280,212.6664,27.9909,33.8832,1,0
0000980542,2,0.2872,-0.2041,-0.9176,0.1839,-1218,917,868,-703,991,1551,-70,-538,-294,210.6467,26.8767,32.5653,1,0
0000980563,2,0.2759,-0.2021,-0.9231,0.1760,-1217,884,918,-739,1083,1595,-52,-532,-328,209.0452,25.9942,31.5476,1,0
0000980584,2,0.2645,-0.2015,-0.9286,0.1646,-1220,855,965,-755,1055,1679,-1,-544,-361,207.0891,25.1460,30.6364,1,0
0000980605,2,0.2531,-0.2012,-0.9336,0.1545,-1220,855,965,-739,919,1719,23,-564,-368,205.3476,24.2306,29.8558,1,0
0000980626,2,0.2410,-0.2018,-0.9386,0.1421,-1216,828,1014,-743,795,1735,35,-572,-362,203.3441,23.2677,29.1389,1,0
0000980647,2,0.2263,-0.2018,-0.9441,0.1293,-1212,800,1064,-763,699,1831,8,-546,-337,201.2236,22.0332,28.3120,1,0
0000980668,2,0.2152,-0.2006,-0.9481,0.1204,-1206,772,1112,-831,747,1879,-24,-515,-333,199.7106,21.0902,27.6016,1,0
0000980689,2,0.2044,-0.1994,-0.9521,0.1094,-1206,772,1112,-915,811,1867,-42,-488,-341,197.9863,20.2160,26.8846,1,0
0000980710,2,0.1943,-0.1971,-0.9556,0.1007,-1200,740,1162,-875,707,1783,-51,-476,-332,196.5762,19.3728,26.1611,1,0
0000980731,2,0.1844,-0.1949,-0.9589,0.0923,-1192,708,1209,-819,703,1767,-44,-460,-322,195.2174,18.5236,25.4800,1,0
0000980752,2,0.1720,-0.1931,-0.9627,0.0798,-1182,680,1254,-751,663,1743,-31,-434,-292,193.3412,17.4828,24.7450,1,0
0000980773,2,0.1635,-0.1913,-0.9651,0.0731,-1172,655,1293,-763,627,1819,-40,-388,-262,192.2761,16.7105,24.2324,1,0
0000980794,2,0.1554,-0.1896,-0.9673,0.0648,-1172,655,1293,-831,743,1931,-51,-348,-259,191.0546,16.0202,23.7425,1,0
0000980815,2,0.1488,-0.1876,-0.9691,0.0590,-1164,630,1330,-879,827,2075,-32,-304,-247,190.1707,15.4443,23.2896,1,0
0000980836,2,0.1431,-0.1867,-0.9704,0.0539,-1156,612,1356,-923,823,2083,30,-266,-198,189.4165,14.9260,23.0167,1,0
0000980857,2,0.1362,-0.1883,-0.9715,0.0465,-1149,609,1377,-891,743,2027,101,-238,-146,188.4094,14.3109,22.9935,1,0
0000980878,2,0.1316,-0.1915,-0.9716,0.0441,-1133,622,1392,-883,643,2023,174,-231,-98,188.0585,13.8210,23.2807,1,0
0000980899,2,0.1261,-0.1964,-0.9715,0.0404,-1133,622,1392,-847,515,2039,190,-236,-53,187.5589,13.2514,23.7410,1,0
0000980920,2,0.1208,-0.2006,-0.9714,0.0404,-1114,637,1403,-875,423,1991,166,-248,5,187.4732,12.6142,24.1667,1,0
0000980941,2,0.1150,-0.2047,-0.9711,0.0419,-1087,660,1415,-879,435,1967,145,-215,73,187.5443,11.9019,24.5898,1,0
0000980962,2,0.1085,-0.2099,-0.9707,0.0432,-1061,687,1419,-799,411,2047,160,-180,118,187.5809,11.0964,25.1360,1,0
0000980983,2,0.1039,-0.2140,-0.9701,0.0478,-1061,687,1419,-747,395,2099,150,-185,157,188.0194,10.4353,25.6098,1,0
0000981004,2,0.0978,-0.2180,-0.9697,0.0509,-1029,713,1423,-691,415,2023,116,-210,187,188.2402,9.6447,26.0419,1,0
0000981025,2,0.0921,-0.2208,-0.9693,0.0569,-989,739,1427,-615,439,1923,84,-191,213,188.7878,8.8275,26.3422,1,0
0000981046,2,0.0869,-0.2236,-0.9687,0.0634,-950,763,1427,-555,475,1891,92,-159,225,189.3966,8.0433,26.6574,1,0
0000981067,2,0.0807,-0.2274,-0.9680,0.0695,-913,788,1423,-399,599,1855,102,-146,231,189.9344,7.1548,27.0616,1,0
0000981088,2,0.0763,-0.2304,-0.9671,0.0766,-913,788,1423,-319,655,1783,103,-140,234,190.6314,6.4483,27.4071,1,0
0000981109,2,0.0721,-0.2334,-0.9663,0.0817,-877,811,1417,-295,619,1811,74,-98,227,191.0947,5.8069,27.7237,1,0
0000981130,2,0.0695,-0.2351,-0.9655,0.0873,-848,826,1409,-275,767,1839,58,-29,203,191.6635,5.3438,27.9169,1,0
0000981151,2,0.0681,-0.2374,-0.9646,0.0923,-826,846,1393,-271,815,1863,96,15,207,192.1927,5.0208,28.1880,1,0
0000981172,2,0.0680,-0.2406,-0.9631,0.0994,-826,846,1393,-275,767,1919,81,66,227,193.0067,4.7691,28.6002,1,0
0000981193,2,0.0692,-0.2416,-0.9621,0.1058,-811,862,1378,-259,911,1855,15,107,219,193.7582,4.7012,28.7648,1,0
0000981214,2,0.0707,-0.2412,-0.9614,0.1117,-798,871,1363,-247,1031,1763,-31,111,187,194.4594,4.7061,28.7683,1,0
0000981235,2,0.0724,-0.2404,-0.9609,0.1167,-788,874,1353,-207,1171,1699,-10,115,144,195.0688,4.7654,28.7215,1,0
0000981256,2,0.0746,-0.2406,-0.9602,0.1208,-783,881,1336,-219,1223,1671,46,120,114,195.5929,4.8848,28.7999,1,0
0000981277,2,0.0781,-0.2425,-0.9589,0.1253,-783,881,1336,-323,1275,1675,79,144,117,196.2129,5.1107,29.1151,1,0
0000981298,2,0.0820,-0.2447,-0.9575,0.1290,-780,894,1314,-435,1271,1639,103,180,109,196.7668,5.3893,29.4627,1,0
0000981319,2,0.0869,-0.2470,-0.9560,0.1323,-783,907,1288,-463,1239,1599,114,211,71,197.2970,5.7865,29.8599,1,0
0000981340,2,0.0929,-0.2488,-0.9546,0.1348,-794,916,1263,-471,1199,1555,63,246,36,197.7884,6.3318,30.2079,1,0
0000981361,2,0.0991,-0.2490,-0.9536,0.1372,-803,917,1242,-391,1275,1387,2,261,33,198.2641,6.9345,30.3870,1,0
0000981382,2,0.1078,-0.2476,-0.9525,0.1406,-803,917,1242,-391,1379,1343,-16,307,34,198.9230,7.8039,30.4429,1,0
0000981403,2,0.1162,-0.2472,-0.9512,0.1437,-820,919,1215,-455,1419,1287,48,362,50,199.5544,8.6294,30.6302,1,0
0000981424,2,0.1265,-0.2480,-0.9490,0.1482,-841,929,1181,-535,1431,1299,99,447,101,200.4229,9.5881,31.0257,1,0
0000981445,2,0.1385,-0.2496,-0.9458,0.1546,-864,948,1133,-603,1383,1319,124,532,189,201.5842,10.6548,31.6059,1,0
0000981466,2,0.1514,-0.2512,-0.9420,0.1633,-864,948,1133,-651,1315,1235,107,590,280,203.0790,11.7272,32.2666,1,0
0000981487,2,0.1687,-0.2525,-0.9360,0.1782,-882,974,1087,-627,1247,1211,71,649,378,205.4611,13.0444,33.1507,1,0
0000981508,2,0.1829,-0.2520,-0.9304,0.1933,-890,1002,1036,-491,1311,1263,3,703,462,207.7695,14.0550,33.8050,1,0
0000981529,2,0.1975,-0.2499,-0.9242,0.2107,-896,1032,989,-435,1435,1311,-40,751,517,210.3637,15.0579,34.3715,1,0
0000981550,2,0.2128,-0.2477,-0.9169,0.2295,-896,1068,937,-379,1503,1343,-14,821,593,213.2074,16.0497,35.0485,1,0
0000981571,2,0.2292,-0.2460,-0.9080,0.2499,-896,1068,937,-319,1355,1463,19,866,631,216.3418,17.0572,35.9494,1,0
0000981592,2,0.2502,-0.2441,-0.8955,0.2754,-889,1105,879,-243,1415,1539,22,865,613,220.4064,18.2819,37.2766,1,0
0000981613,2,0.2667,-0.2427,-0.8848,0.2951,-878,1148,822,-215,1371,1615,43,845,609,223.6356,19.1846,38.4226,1,0
0000981634,2,0.2824,-0.2419,-0.8736,0.3139,-861,1188,767,-223,1335,1663,73,793,583,226.7985,19.9660,39.6710,1,0
0000981655,2,0.2967,-0.2414,-0.8628,0.3306,-861,1188,767,-263,1131,1791,70,715,504,229.6951,20.6300,40.8993,1,0
0000981676,2,0.3092,-0.2404,-0.8531,0.3447,-847,1221,718,-323,1103,1847,54,590,410,232.2148,21.2113,41.9665,1,0
0000981697,2,0.3220,-0.2401,-0.8423,0.3594,-832,1250,681,-371,1031,1851,94,490,377,234.8981,21.7052,43.1977,1,0
0000981718,2,0.3301,-0.2411,-0.8345,0.3695,-813,1275,647,-435,899,1855,96,389,344,236.7318,21.8842,44.1424,1,0
0000981739,2,0.3356,-0.2421,-0.8282,0.3778,-793,1296,627,-519,851,1775,35,264,289,238.1790,21.8961,44.8753,1,0
0000981760,2,0.3380,-0.2414,-0.8241,0.3851,-793,1296,627,-539,839,1591,-94,155,205,239.2418,21.7865,45.1354,1,0
0000981781,2,0.3383,-0.2379,-0.8216,0.3924,-776,1303,630,-659,983,1427,-153,97,134,240.1080,21.6662,44.9334,1,0
0000981802,2,0.3375,-0.2349,-0.8209,0.3962,-767,1303,638,-747,1039,1315,-133,42,78,240.4823,21.5925,44.6283,1,0
0000981823,2,0.3365,-0.2328,-0.8208,0.3985,-761,1300,648,-763,963,1159,-93,11,40,240.6585,21.5224,44.3575,1,0
0000981844,2,0.3359,-0.2310,-0.8210,0.3998,-759,1297,653,-899,939,1227,-80,27,7,240.7440,21.5164,44.1353,1,0
0000981865,2,0.3364,-0.2282,-0.8211,0.4007,-759,1297,653,-1051,1019,1303,-86,104,-34,240.8581,21.6883,43.9073,1,0
0000981886,2,0.3394,-0.2233,-0.8208,0.4015,-768,1291,654,-1203,1095,1371,-95,174,-55,241.1226,22.2018,43.6528,1,0
0000981907,2,0.3433,-0.2178,-0.8202,0.4025,-782,1285,654,-1219,1171,1371,-138,244,-68,241.4681,22.8157,43.4189,1,0
0000981928,2,0.3484,-0.2102,-0.8193,0.4039,-802,1268,652,-1199,1367,1295,-173,323,-93,241.9366,23.6480,43.1025,1,0
0000981949,2,0.3552,-0.2017,-0.8180,0.4050,-802,1268,652,-1207,1531,1219,-154,389,-120,242.5007,24.6945,42.8303,1,0
0000981970,2,0.3639,-0.1933,-0.8160,0.4055,-829,1253,642,-1231,1587,1183,-76,461,-136,243.1423,25.9233,42.7496,1,0
0000981991,2,0.3778,-0.1844,-0.8118,0.4053,-859,1240,621,-1283,1511,1179,23,526,-123,244.1651,27.6452,43.1253,1,0
0000982012,2,0.3914,-0.1789,-0.8069,0.4046,-892,1234,576,-1343,1427,1235,114,584,-113,245.2163,29.1361,43.8801,1,0
0000982033,2,0.4064,-0.1741,-0.8010,0.4036,-920,1232,530,-1379,1271,1291,140,614,-110,246.4230,30.6979,44.9059,1,0
0000982054,2,0.4215,-0.1688,-0.7947,0.4029,-920,1232,530,-1391,1195,1283,103,636,-98,247.7589,32.2638,45.9691,1,0
0000982075,2,0.4365,-0.1624,-0.7877,0.4032,-947,1226,482,-1423,1199,1283,52,679,-61,249.2903,33.8336,47.0297,1,0
0000982096,2,0.4553,-0.1537,-0.7778,0.4051,-968,1226,431,-1443,1219,1243,45,695,-13,251.5353,35.7055,48.4885,1,0
0000982117,2,0.4703,-0.1475,-0.7686,0.4077,-981,1229,384,-1435,1183,1275,69,711,42,253.6099,37.0622,49.8886,1,0
0000982138,2,0.4857,-0.1423,-0.7583,0.4109,-987,1235,327,-1415,1063,1387,99,736,88,255.9524,38.2918,51.5828,1,0
0000982159,2,0.5011,-0.1373,-0.7471,0.4146,-987,1235,327,-1419,1015,1375,71,744,113,258.5117,39.4147,53.4545,1,0
0000982180,2,0.5155,-0.1311,-0.7356,0.4194,-986,1246,279,-1347,1043,1307,-14,730,132,261.1808,40.4250,55.2268,1,0
0000982201,2,0.5318,-0.1227,-0.7213,0.4265,-980,1257,236,-1223,1119,1143,-48,703,151,264.5884,41.4900,57.3286,1,0
0000982222,2,0.5439,-0.1163,-0.7098,0.4322,-973,1267,196,-1131,1159,1095,-13,679,157,267.3101,42.1860,59.0253,1,0
0000982243,2,0.5562,-0.1114,-0.6982,0.4367,-973,1267,196,-1171,1115,1119,64,661,144,270.0081,42.8022,60.9354,1,0
0000982264,2,0.5688,-0.1075,-0.6867,0.4397,-963,1278,147,-1339,1055,1135,96,640,130,272.6663,43.3660,63.0288,1,0
0000982285,2,0.5803,-0.1033,-0.6758,0.4426,-954,1287,103,-1323,1099,1059,33,578,103,275.2004,43.8620,64.9690,1,0
0000982306,2,0.5924,-0.0972,-0.6637,0.4463,-947,1292,67,-1167,1131,875,-8,517,79,278.0528,44.3919,66.9927,1,0
0000982327,2,0.6005,-0.0922,-0.6554,0.4488,-942,1297,39,-1099,1211,751,-4,465,49,280.0634,44.7747,68.3539,1,0
0000982348,2,0.6081,-0.0877,-0.6480,0.4501,-942,1297,39,-1123,1251,731,42,417,13,281.8519,45.1657,69.6687,1,0
0000982369,2,0.6158,-0.0843,-0.6415,0.4496,-940,1297,8,-1207,1183,715,97,376,-17,283.4466,45.5852,71.0437,1,0
0000982390,2,0.6229,-0.0812,-0.6361,0.4480,-943,1293,-23,-1215,1155,679,103,324,-57,284.8155,46.0303,72.3322,1,0
0000982411,2,0.6302,-0.0770,-0.6313,0.4453,-950,1285,-48,-1199,1147,591,64,250,-100,286.1531,46.6514,73.6050,1,0
0000982432,2,0.6346,-0.0734,-0.6290,0.4430,-963,1279,-65,-1211,1199,499,45,191,-124,286.9222,47.1644,74.3065,1,0
0000982453,2,0.6380,-0.0699,-0.6279,0.4403,-963,1279,-65,-1251,1235,463,54,139,-147,287.4386,47.6917,74.8211,1,0
0000982474,2,0.6411,-0.0672,-0.6276,0.4365,-977,1267,-80,-1335,1187,491,94,104,-165,287.7633,48.2538,75.3021,1,0
0000982495,2,0.6440,-0.0651,-0.6280,0.4320,-994,1253,-96,-1391,1151,495,108,60,-174,287.9342,48.8168,75.7491,1,0
0000982516,2,0.6464,-0.0628,-0.6295,0.4266,-1009,1239,-105,-1451,1139,451,74,10,-169,287.8896,49.4857,76.0592,1,0
0000982537,2,0.6469,-0.0610,-0.6316,0.4230,-1009,1239,-105,-1511,1143,407,33,-37,-160,287.6100,49.9548,75.9934,1,0
0000982558,2,0.6462,-0.0592,-0.6344,0.4199,-1026,1226,-106,-1575,1227,347,11,-76,-157,287.1390,50.3765,75.6781,1,0
0000982579,2,0.6450,-0.0580,-0.6378,0.4169,-1043,1214,-103,-1591,1247,319,21,-108,-148,286.5017,50.7532,75.2336,1,0
0000982600,2,0.6436,-0.0574,-0.6413,0.4138,-1056,1201,-98,-1619,1239,327,46,-126,-136,285.7709,51.0731,74.7688,1,0
0000982621,2,0.6416,-0.0575,-0.6459,0.4097,-1071,1191,-94,-1675,1195,363,53,-142,-126,284.7686,51.4183,74.1761,1,0
0000982642,2,0.6397,-0.0579,-0.6497,0.4066,-1071,1191,-94,-1723,1155,383,36,-157,-113,283.8909,51.6339,73.6259,1,0
0000982663,2,0.6371,-0.0581,-0.6537,0.4043,-1084,1183,-85,-1707,1191,363,0,-167,-106,282.9618,51.8088,72.9342,1,0
0000982684,2,0.6343,-0.0581,-0.6576,0.4022,-1094,1174,-73,-1719,1227,339,2,-165,-100,282.0198,51.9582,72.1876,1,0
0000982705,2,0.6319,-0.0585,-0.6613,0.4001,-1104,1166,-66,-1739,1199,363,29,-153,-84,281.1280,52.0752,71.5378,1,0
0000982726,2,0.6292,-0.0595,-0.6654,0.3974,-1104,1166,-66,-1747,1207,363,29,-144,-75,280.0998,52.1789,70.8411,1,0
0000982747,2,0.6271,-0.0603,-0.6684,0.3954,-1114,1159,-56,-1727,1167,355,29,-136,-67,279.3274,52.2412,70.3202,1,0
0000982768,2,0.6252,-0.0611,-0.6711,0.3937,-1120,1156,-52,-1735,1123,359,22,-120,-58,278.6315,52.2835,69.8496,1,0
0000982789,2,0.6235,-0.0616,-0.6735,0.3923,-1126,1150,-44,-1699,1127,379,8,-107,-53,278.0121,52.3221,69.4027,1,0
0000982810,2,0.6218,-0.0619,-0.6756,0.3913,-1131,1146,-38,-1683,1123,407,5,-82,-35,277.4819,52.3481,68.9931,1,0
0000982831,2,0.6205,-0.0625,-0.6773,0.3903,-1131,1146,-38,-1671,1115,419,17,-57,-19,277.0185,52.3494,68.6674,1,0
0000982852,2,0.6198,-0.0631,-0.6782,0.3897,-1133,1146,-36,-1675,1091,427,16,-41,-7,276.7805,52.3297,68.5363,1,0
0000982873,2,0.6194,-0.0636,-0.6787,0.3894,-1134,1144,-33,-1683,1087,435,9,-25,2,276.6297,52.2998,68.4520,1,0
0000982894,2,0.6193,-0.0640,-0.6788,0.3894,-1132,1145,-35,-1691,1099,447,8,-4,7,276.5833,52.2686,68.4423,1,0
0000982915,2,0.6194,-0.0642,-0.6786,0.3895,-1133,1149,-37,-1655,1111,455,2,17,10,276.6358,52.2496,68.4979,1,0
0000982936,2,0.6199,-0.0641,-0.6780,0.3898,-1133,1149,-37,-1631,1111,455,-4,29,9,276.7962,52.2442,68.6195,1,0
0000982957,2,0.6205,-0.0637,-0.6773,0.3901,-1131,1146,-37,-1651,1127,471,-6,44,5,276.9910,52.2672,68.7529,1,0
0000982978,2,0.6215,-0.0631,-0.6764,0.3902,-1131,1148,-44,-1639,1135,491,3,56,0,277.2350,52.3201,68.9420,1,0
0000982999,2,0.6226,-0.0626,-0.6754,0.3902,-1129,1147,-48,-1639,1111,495,5,61,-1,277.5139,52.3895,69.1791,1,0
0000983020,2,0.6237,-0.0619,-0.6744,0.3903,-1129,1147,-48,-1631,1123,479,-9,59,-4,277.7942,52.4627,69.3958,1,0
0000983041,2,0.6248,-0.0607,-0.6733,0.3906,-1130,1146,-50,-1611,1147,459,-13,54,-6,278.1166,52.5568,69.6009,1,0
0000983062,2,0.6256,-0.0599,-0.6727,0.3907,-1131,1146,-54,-1567,1159,455,-8,43,-10,278.3268,52.6340,69.7357,1,0
0000983083,2,0.6261,-0.0593,-0.6722,0.3907,-1131,1144,-55,-1583,1147,467,-3,30,-10,278.4744,52.6976,69.8357,1,0
0000983104,2,0.6266,-0.0588,-0.6719,0.3905,-1132,1144,-58,-1607,1159,463,0,20,-12,278.5661,52.7543,69.9041,1,0
0000983125,2,0.6269,-0.0585,-0.6718,0.3902,-1132,1144,-58,-1603,1119,475,12,9,-10,278.6160,52.8047,69.9604,1,0
0000983146,2,0.6272,-0.0586,-0.6718,0.3898,-1132,1143,-58,-1599,1103,471,11,0,-5,278.6283,52.8391,70.0158,1,0
0000983167,2,0.6272,-0.0587,-0.6718,0.3896,-1131,1144,-59,-1603,1091,471,7,-3,-1,278.6122,52.8450,70.0301,1,0
0000983188,2,0.6272,-0.0589,-0.6719,0.3895,-1134,1143,-59,-1599,1091,463,4,-6,0,278.5840,52.8409,70.0228,1,0
0000983209,2,0.6270,-0.0590,-0.6721,0.3896,-1133,1144,-58,-1607,1107,463,-4,-10,3,278.5411,52.8253,69.9837,1,0
0000983230,2,0.6267,-0.0591,-0.6722,0.3898,-1133,1144,-58,-1627,1103,459,-3,-8,5,278.5047,52.7977,69.9363,1,0
0000983251,2,0.6265,-0.0592,-0.6723,0.3899,-1133,1144,-59,-1639,1103,471,0,-6,0,278.4622,52.7761,69.8947,1,0
0000983272,2,0.6264,-0.0592,-0.6725,0.3898,-1133,1143,-57,-1659,1127,455,-2,-9,-3,278.4192,52.7733,69.8546,1,0
0000983293,2,0.6261,-0.0591,-0.6727,0.3898,-1133,1143,-56,-1659,1131,447,-4,-10,-7,278.3581,52.7765,69.7908,1,0
0000983314,2,0.6259,-0.0590,-0.6730,0.3897,-1133,1143,-56,-1651,1139,439,-2,-11,-13,278.2889,52.7954,69.7250,1,0
0000983335,2,0.6257,-0.0588,-0.6734,0.3894,-1135,1141,-55,-1635,1123,435,1,-11,-16,278.2079,52.8256,69.6551,1,0
0000983356,2,0.6256,-0.0587,-0.6737,0.3889,-1135,1140,-55,-1639,1107,451,9,-5,-19,278.1194,52.8780,69.6074,1,0
0000983377,2,0.6257,-0.0586,-0.6740,0.3884,-1138,1139,-56,-1651,1099,471,7,0,-19,278.0755,52.9321,69.5998,1,0
0000983398,2,0.6258,-0.0583,-0.6741,0.3880,-1139,1138,-55,-1639,1115,463,0,3,-19,278.0506,52.9881,69.5857,1,0
0000983419,2,0.6259,-0.0578,-0.6742,0.3878,-1139,1138,-55,-1627,1119,459,-7,9,-17,278.0556,53.0477,69.5724,1,0
0000983440,2,0.6260,-0.0573,-0.6742,0.3876,-1139,1135,-54,-1623,1127,459,-7,11,-16,278.0800,53.1052,69.5654,1,0
0000983461,2,0.6262,-0.0568,-0.6742,0.3875,-1144,1136,-58,-1627,1123,455,-3,11,-13,278.1098,53.1614,69.5726,1,0
0000983482,2,0.6264,-0.0565,-0.6741,0.3873,-1143,1134,-56,-1643,1131,455,0,9,-9,278.1404,53.2043,69.5943,1,0
0000983503,2,0.6265,-0.0563,-0.6741,0.3872,-1143,1134,-56,-1639,1119,455,1,3,-3,278.1567,53.2282,69.6119,1,0
0000983524,2,0.6266,-0.0563,-0.6741,0.3871,-1143,1134,-57,-1643,1115,463,-1,0,0,278.1584,53.2354,69.6154,1,0
0000983545,2,0.6265,-0.0563,-0.6741,0.3872,-1144,1135,-58,-1643,1131,463,-2,0,0,278.1571,53.2371,69.6074,1,0
0000983566,2,0.6264,-0.0563,-0.6741,0.3872,-1143,1131,-56,-1651,1131,451,-2,-4,2,278.1402,53.2278,69.5840,1,0
0000983587,2,0.6263,-0.0563,-0.6742,0.3874,-1145,1136,-56,-1639,1139,447,-4,-5,4,278.1207,53.2098,69.5586,1,0
0000983608,2,0.6262,-0.0564,-0.6743,0.3874,-1145,1136,-56,-1635,1127,455,4,-4,1,278.0979,53.1964,69.5378,1,0
0000983629,2,0.6263,-0.0566,-0.6743,0.3872,-1143,1135,-56,-1627,1115,467,14,2,-2,278.0936,53.1967,69.5706,1,0
0000983650,2,0.6265,-0.0568,-0.6743,0.3869,-1143,1134,-59,-1627,1131,451,12,0,-5,278.0917,53.2116,69.6101,1,0
0000983671,2,0.6266,-0.0569,-0.6743,0.3865,-1145,1134,-59,-1615,1123,439,11,3,-7,278.0835,53.2394,69.6442,1,0
0000983692,2,0.6269,-0.0570,-0.6743,0.3861,-1144,1132,-61,-1619,1115,443,18,6,-10,278.0923,53.2713,69.7027,1,0
0000983713,2,0.6273,-0.0570,-0.6743,0.3855,-1144,1132,-61,-1635,1099,431,22,5,-12,278.1007,53.3137,69.7718,1,0
0000983734,2,0.6277,-0.0573,-0.6743,0.3849,-1145,1132,-65,-1647,1083,435,30,5,-11,278.1046,53.3544,69.8600,1,0
0000983755,2,0.6281,-0.0575,-0.6742,0.3842,-1146,1132,-67,-1659,1079,427,25,8,-8,278.1205,53.3923,69.9581,1,0
0000983776,2,0.6286,-0.0577,-0.6740,0.3837,-1147,1128,-71,-1659,1071,431,15,12,-2,278.1689,53.4245,70.0718,1,0
0000983797,2,0.6289,-0.0578,-0.6738,0.3835,-1147,1128,-71,-1663,1095,411,7,14,2,278.2361,53.4386,70.1590,1,0
0000983818,2,0.6292,-0.0578,-0.6735,0.3835,-1147,1132,-73,-1667,1115,399,5,13,5,278.3090,53.4401,70.2352,1,0
0000983839,2,0.6295,-0.0580,-0.6733,0.3835,-1145,1132,-72,-1679,1131,395,12,9,4,278.3698,53.4359,70.3136,1,0
0000983860,2,0.6298,-0.0583,-0.6731,0.3833,-1145,1130,-75,-1679,1127,407,19,3,2,278.4047,53.4313,70.3919,1,0
0000983881,2,0.6301,-0.0587,-0.6730,0.3829,-1145,1133,-76,-1683,1131,423,19,1,-1,278.4226,53.4339,70.4808,1,0
0000983902,2,0.6303,-0.0590,-0.6730,0.3825,-1145,1133,-76,-1671,1135,423,17,0,-4,278.4204,53.4444,70.5353,1,0
0000983923,2,0.6305,-0.0592,-0.6731,0.3820,-1145,1128,-78,-1647,1143,427,22,-3,-9,278.3929,53.4638,70.5749,1,0
0000983944,2,0.6307,-0.0596,-0.6732,0.3814,-1147,1128,-81,-1647,1127,427,33,-4,-9,278.3557,53.4867,70.6328,1,0
0000983965,2,0.6311,-0.0604,-0.6734,0.3803,-1147,1128,-82,-1639,1103,411,43,-4,-10,278.3030,53.5182,70.7445,1,0
0000983986,2,0.6315,-0.0611,-0.6734,0.3794,-1148,1127,-87,-1639,1083,435,45,0,-6,278.2758,53.5394,70.8617,1,0
0000984007,2,0.6320,-0.0618,-0.6734,0.3785,-1148,1127,-87,-1631,1083,447,44,2,-5,278.2781,53.5563,71.0000,1,0
0000984028,2,0.6325,-0.0624,-0.6733,0.3777,-1148,1126,-90,-1635,1099,443,42,3,-5,278.2793,53.5754,71.1335,1,0
0000984049,2,0.6330,-0.0630,-0.6733,0.3769,-1148,1126,-94,-1627,1115,415,36,0,-8,278.2775,53.5988,71.2490,1,0
0000984070,2,0.6334,-0.0637,-0.6734,0.3758,-1149,1125,-99,-1631,1127,379,45,-6,-11,278.2255,53.6309,71.3579,1,0
0000984091,2,0.6339,-0.0646,-0.6735,0.3746,-1149,1125,-99,-1639,1091,419,66,-1,-9,278.1862,53.6580,71.5038,1,0
0000984112,2,0.6348,-0.0658,-0.6734,0.3732,-1149,1121,-103,-1635,1051,463,78,7,-7,278.1977,53.6882,71.7444,1,0
0000984133,2,0.6355,-0.0668,-0.6733,0.3719,-1151,1120,-110,-1635,1071,443,57,3,-8,278.2065,53.7195,71.9558,1,0
0000984154,2,0.6359,-0.0673,-0.6733,0.3711,-1152,1120,-113,-1639,1115,399,30,-7,-9,278.1801,53.7432,72.0545,1,0
0000984175,2,0.6361,-0.0680,-0.6736,0.3702,-1151,1118,-113,-1647,1151,367,38,-7,-6,278.1111,53.7640,72.1251,1,0
0000984196,2,0.6366,-0.0689,-0.6736,0.3693,-1151,1118,-113,-1639,1127,395,57,-1,-1,278.0854,53.7698,72.2579,1,0
0000984217,2,0.6372,-0.0700,-0.6734,0.3682,-1153,1118,-121,-1623,1115,427,63,1,1,278.0890,53.7685,72.4524,1,0
0000984238,2,0.6378,-0.0711,-0.6732,0.3673,-1152,1117,-125,-1599,1143,395,53,5,8,278.1119,53.7565,72.6448,1,0
0000984259,2,0.6384,-0.0721,-0.6729,0.3667,-1150,1118,-132,-1555,1155,379,47,10,13,278.1628,53.7289,72.8335,1,0
0000984280,2,0.6392,-0.0733,-0.6723,0.3661,-1150,1118,-132,-1555,1191,371,46,16,16,278.2731,53.6888,73.0992,1,0
0000984301,2,0.6400,-0.0743,-0.6717,0.3657,-1149,1120,-135,-1579,1239,387,49,24,24,278.4093,53.6452,73.3547,1,0
0000984322,2,0.6410,-0.0756,-0.6707,0.3654,-1144,1121,-142,-1587,1267,399,63,33,40,278.6093,53.5721,73.6889,1,0
0000984343,2,0.6423,-0.0776,-0.6693,0.3652,-1139,1125,-155,-1595,1271,387,84,40,67,278.8766,53.4360,74.1359,1,0
0000984364,2,0.6438,-0.0803,-0.6675,0.3655,-1129,1133,-166,-1567,1203,383,80,52,117,279.2317,53.2018,74.6934,1,0
0000984385,2,0.6453,-0.0837,-0.6645,0.3674,-1129,1133,-166,-1531,1231,379,25,58,145,279.7889,52.7662,75.3440,1,0
0000984406,2,0.6460,-0.0857,-0.6619,0.3704,-1113,1145,-170,-1479,1355,375,-16,60,167,280.2789,52.3417,75.7189,1,0
0000984427,2,0.6465,-0.0881,-0.6589,0.3743,-1096,1161,-177,-1455,1419,367,-15,73,214,280.8339,51.8124,76.1028,1,0
0000984448,2,0.6477,-0.0897,-0.6541,0.3804,-1071,1182,-183,-1467,1511,391,-2,101,251,281.8076,51.1628,76.6341,1,0
0000984469,2,0.6490,-0.0935,-0.6495,0.3851,-1044,1204,-195,-1507,1503,363,21,109,280,282.6025,50.4451,77.2867,1,0
0000984490,2,0.6510,-0.0972,-0.6422,0.3929,-1044,1204,-195,-1527,1447,379,11,120,308,283.9053,49.4384,78.1453,1,0
0000984511,2,0.6525,-0.0998,-0.6354,0.4007,-1010,1230,-204,-1483,1507,359,-19,144,346,285.1108,48.5246,78.8135,1,0
0000984532,2,0.6538,-0.1039,-0.6288,0.4078,-972,1256,-214,-1467,1635,343,-34,164,374,286.1300,47.5247,79.4708,1,0
0000984553,2,0.6557,-0.1071,-0.6205,0.4167,-928,1290,-227,-1447,1671,355,8,174,414,287.4811,46.4187,80.2154,1,0
0000984574,2,0.6577,-0.1134,-0.6122,0.4241,-928,1290,-227,-1395,1575,375,22,189,481,288.5837,45.1547,81.0878,1,0
0000984595,2,0.6599,-0.1199,-0.5998,0.4362,-877,1320,-238,-1347,1583,371,-13,194,501,290.2611,43.3981,82.0715,1,0
0000984616,2,0.6614,-0.1246,-0.5894,0.4469,-821,1355,-252,-1363,1623,371,-25,200,515,291.6348,41.9337,82.7342,1,0
0000984637,2,0.6627,-0.1309,-0.5794,0.4561,-759,1389,-262,-1371,1603,415,-16,226,527,292.7487,40.4301,83.4039,1,0
0000984658,2,0.6646,-0.1353,-0.5676,0.4667,-698,1418,-275,-1391,1647,347,-14,245,523,294.2039,38.9137,84.1030,1,0
0000984679,2,0.6661,-0.1413,-0.5569,0.4756,-698,1418,-275,-1487,1583,307,-15,236,519,295.3202,37.4093,84.7442,1,0
0000984700,2,0.6679,-0.1469,-0.5424,0.4880,-637,1447,-285,-1507,1559,319,-37,247,513,296.9263,35.5316,85.4390,1,0
0000984721,2,0.6690,-0.1502,-0.5303,0.4987,-571,1475,-292,-1463,1619,219,-80,254,515,298.2619,34.0367,85.8611,1,0
0000984742,2,0.6685,-0.1546,-0.5198,0.5089,-509,1500,-288,-1387,1615,171,-143,215,515,299.2384,32.5173,86.0328,1,0
0000984763,2,0.6663,-0.1587,-0.5103,0.5200,-448,1529,-267,-1291,1595,151,-214,162,515,300.0140,31.0003,85.8722,1,0
0000984784,2,0.6621,-0.1622,-0.5019,0.5322,-448,1529,-267,-1239,1735,19,-330,98,503,300.6228,29.4743,85.3561,1,0
0000984805,2,0.6544,-0.1644,-0.4923,0.5498,-388,1553,-229,-1175,1803,-63,-384,35,492,301.3603,27.6182,84.2091,1,0
0000984826,2,0.6470,-0.1661,-0.4854,0.5641,-331,1576,-185,-1159,1847,-115,-390,-27,480,301.8406,26.1544,83.1120,1,0
0000984847,2,0.6381,-0.1703,-0.4813,0.5764,-278,1595,-138,-1227,1779,15,-381,-98,465,301.7990,24.7045,81.9194,1,0
0000984868,2,0.6292,-0.1729,-0.4762,0.5894,-278,1595,-138,-1187,1791,87,-384,-134,445,301.9928,23.2943,80.7002,1,0
0000984889,2,0.6189,-0.1774,-0.4738,0.6009,-225,1610,-87,-1039,1771,131,-417,-173,424,301.7415,21.9135,79.3768,1,0
0000984910,2,0.6053,-0.1811,-0.4698,0.6165,-176,1623,-33,-987,1755,175,-446,-202,418,301.6956,20.2087,77.5973,1,0
0000984931,2,0.5933,-0.1837,-0.4670,0.6294,-127,1628,30,-979,1803,203,-488,-231,408,301.6288,18.8429,76.0353,1,0
0000984952,2,0.5801,-0.1880,-0.4665,0.6408,-78,1633,87,-1075,1915,223,-476,-249,396,301.1981,17.4697,74.4130,1,0
0000984973,2,0.5684,-0.1911,-0.4641,0.6520,-78,1633,87,-967,1919,343,-396,-227,373,301.1083,16.1598,73.0023,1,0
0000984994,2,0.5580,-0.1958,-0.4628,0.6604,-33,1632,134,-915,1919,475,-301,-191,333,300.8166,14.9435,71.8685,1,0
0000985015,2,0.5478,-0.1999,-0.4588,0.6704,10,1631,168,-923,1855,551,-246,-138,322,300.8864,13.5726,70.7918,1,0
0000985036,2,0.5408,-0.2019,-0.4546,0.6783,47,1628,201,-759,1855,567,-263,-83,302,301.1692,12.5812,70.0171,1,0
0000985057,2,0.5340,-0.2037,-0.4517,0.6851,47,1628,201,-511,1799,623,-251,-36,265,301.3151,11.7263,69.2588,1,0
0000985078,2,0.5287,-0.2034,-0.4469,0.6924,79,1623,235,-351,1795,675,-222,6,246,301.8376,11.0045,68.5952,1,0
0000985099,2,0.5239,-0.2041,-0.4429,0.6983,111,1619,260,-303,1783,703,-179,32,266,302.2013,10.3129,68.0560,1,0
0000985120,2,0.5192,-0.2045,-0.4351,0.7066,143,1613,283,-287,1711,739,-147,33,290,303.0244,9.3733,67.5184,1,0
0000985141,2,0.5160,-0.2049,-0.4277,0.7133,179,1605,302,-179,1615,723,-127,33,298,303.8060,8.5746,67.1811,1,0
0000985162,2,0.5122,-0.2071,-0.4226,0.7185,179,1605,302,-283,1655,699,-125,3,288,304.2051,7.7739,66.8480,1,0
0000985183,2,0.5090,-0.2088,-0.4160,0.7241,215,1599,318,-303,1643,711,-90,-21,280,304.8114,6.9622,66.5695,1,0
0000985204,2,0.5054,-0.2120,-0.4118,0.7280,247,1592,330,-291,1663,743,-91,-38,252,305.0507,6.1748,66.3298,1,0
0000985225,2,0.5014,-0.2146,-0.4056,0.7335,276,1587,340,-231,1643,755,-92,-46,227,305.5485,5.2757,65.9970,1,0
0000985246,2,0.4982,-0.2162,-0.4009,0.7378,301,1579,354,-163,1655,843,-95,-49,208,305.9424,4.6161,65.7096,1,0
0000985267,2,0.4946,-0.2188,-0.3982,0.7409,301,1579,354,-87,1719,875,-101,-49,195,306.0549,3.9954,65.4150,1,0
0000985288,2,0.4917,-0.2200,-0.3938,0.7448,325,1567,366,-19,1703,903,-80,-31,187,306.4492,3.4150,65.1335,1,0
0000985309,2,0.4892,-0.2222,-0.3909,0.7474,349,1563,372,67,1683,907,-42,-20,177,306.6157,2.8779,64.9645,1,0
0000985330,2,0.4869,-0.2239,-0.3856,0.7511,368,1555,380,131,1655,899,-48,-24,163,307.0786,2.2463,64.7915,1,0
0000985351,2,0.4851,-0.2249,-0.3814,0.7541,368,1555,380,143,1603,895,-50,-32,148,307.4594,1.7726,64.6307,1,0
0000985372,2,0.4828,-0.2268,-0.3793,0.7560,387,1550,386,159,1615,835,-59,-31,137,307.5563,1.3404,64.4619,1,0
0000985393,2,0.4809,-0.2274,-0.3757,0.7589,401,1545,395,151,1587,811,-61,-31,129,307.9031,0.9241,64.2717,1,0
0000985414,2,0.4785,-0.2288,-0.3740,0.7608,416,1539,403,151,1495,779,-91,-16,106,307.9912,0.5648,64.0560,1,0
0000985435,2,0.4753,-0.2282,-0.3709,0.7645,428,1533,416,107,1527,819,-120,-6,83,308.3707,0.2149,63.6407,1,0
0000985456,2,0.4726,-0.2268,-0.3685,0.7677,428,1533,416,119,1587,811,-137,1,69,308.7238,0.0058,63.2318,1,0
0000985477,2,0.4694,-0.2261,-0.3680,0.7701,437,1524,435,95,1631,791,-136,7,60,308.8255,-0.1614,62.8022,1,0
0000985498,2,0.4674,-0.2243,-0.3655,0.7730,441,1518,446,167,1495,847,-93,35,52,309.2102,-0.2913,62.4600,1,0
0000985519,2,0.4660,-0.2220,-0.3629,0.7758,446,1514,461,227,1407,923,-118,57,44,309.6506,-0.3591,62.1584,1,0
0000985540,2,0.4628,-0.2192,-0.3617,0.7791,450,1507,483,127,1419,1015,-166,77,42,309.9629,-0.3940,61.6013,1,0
0000985561,2,0.4597,-0.2149,-0.3590,0.7833,450,1507,483,87,1511,1083,-198,98,41,310.5326,-0.3787,60.9945,1,0
0000985582,2,0.4567,-0.2113,-0.3578,0.7866,451,1498,506,27,1591,1115,-171,117,39,310.8879,-0.3221,60.4228,1,0
0000985603,2,0.4553,-0.2069,-0.3546,0.7900,450,1493,523,15,1583,1139,-83,118,18,311.5217,-0.2230,60.0131,1,0
0000985624,2,0.4549,-0.2040,-0.3536,0.7915,445,1490,530,-19,1731,1115,-35,94,-27,311.8163,-0.0642,59.8098,1,0
0000985645,2,0.4569,-0.1999,-0.3517,0.7922,445,1490,530,-91,1735,1103,61,83,-66,312.2755,0.2676,59.8347,1,0
0000985666,2,0.4605,-0.1974,-0.3500,0.7915,436,1497,523,-11,1699,1111,117,62,-72,312.6148,0.5670,60.1305,1,0
0000985687,2,0.4639,-0.1967,-0.3503,0.7896,426,1502,514,-79,1603,1083,124,38,-69,312.6341,0.8237,60.5111,1,0
0000985708,2,0.4670,-0.1951,-0.3491,0.7886,418,1507,501,-167,1587,1091,67,14,-79,312.8588,1.0519,60.8052,1,0
0000985729,2,0.4684,-0.1942,-0.3505,0.7874,407,1509,502,-179,1747,1123,3,11,-88,312.7640,1.2920,60.9297,1,0
0000985750,2,0.4689,-0.1911,-0.3510,0.7877,407,1509,502,-147,1799,1071,-41,11,-83,312.9094,1.6056,60.8314,1,0
0000985771,2,0.4682,-0.1891,-0.3520,0.7881,397,1509,506,-215,1835,1059,-61,-3,-69,312.9256,1.8098,60.6347,1,0
0000985792,2,0.4677,-0.1881,-0.3534,0.7880,392,1512,509,-167,1787,1035,-13,-5,-47,312.8297,1.9502,60.5277,1,0
0000985813,2,0.4680,-0.1879,-0.3542,0.7875,387,1513,508,-171,1639,1015,20,-17,-35,312.7513,2.0384,60.5551,1,0
0000985834,2,0.4681,-0.1880,-0.3552,0.7870,387,1513,508,-171,1595,1023,-32,-27,-34,312.6395,2.1002,60.5654,1,0
0000985855,2,0.4662,-0.1875,-0.3569,0.7875,386,1513,509,-195,1655,911,-90,-35,-23,312.4909,2.1462,60.2998,1,0
0000985876,2,0.4636,-0.1873,-0.3581,0.7885,386,1509,520,-243,1611,887,-101,-50,-1,312.3595,2.1045,59.9804,1,0
0000985897,2,0.4611,-0.1875,-0.3592,0.7895,388,1506,528,-235,1627,863,-92,-52,5,312.2278,2.0135,59.6818,1,0
0000985918,2,0.4589,-0.1879,-0.3601,0.7902,391,1506,531,-275,1667,895,-51,-56,0,312.0970,1.9247,59.4394,1,0
0000985939,2,0.4577,-0.1887,-0.3610,0.7903,391,1506,531,-311,1671,931,-5,-46,-7,311.9493,1.8444,59.3334,1,0
0000985960,2,0.4576,-0.1893,-0.3619,0.7898,391,1502,531,-423,1675,971,15,-19,-27,311.8154,1.8413,59.3447,1,0
0000985981,2,0.4581,-0.1888,-0.3627,0.7892,388,1507,526,-451,1707,987,19,12,-53,311.7556,1.9678,59.3881,1,0
0000986002,2,0.4588,-0.1874,-0.3637,0.7887,380,1509,529,-231,1715,1003,-10,43,-69,311.7400,2.1889,59.3946,1,0
0000986023,2,0.4591,-0.1851,-0.3647,0.7886,369,1508,534,-111,1763,1035,-26,52,-72,311.7670,2.4634,59.3113,1,0
0000986044,2,0.4597,-0.1830,-0.3655,0.7884,369,1508,534,-159,1783,1063,4,55,-57,311.8025,2.7176,59.2733,1,0
0000986065,2,0.4610,-0.1808,-0.3658,0.7880,360,1512,533,-119,1779,1111,15,62,-41,311.9058,2.9957,59.3180,1,0
0000986086,2,0.4619,-0.1793,-0.3657,0.7879,354,1510,535,-87,1795,1123,13,51,-27,312.0108,3.1670,59.3590,1,0
0000986107,2,0.4627,-0.1784,-0.3656,0.7877,351,1511,531,-115,1787,1075,9,29,-17,312.0765,3.2819,59.3971,1,0
0000986128,2,0.4631,-0.1780,-0.3655,0.7875,351,1511,531,-147,1711,1051,18,14,-6,312.1132,3.3378,59.4360,1,0
0000986149,2,0.4638,-0.1781,-0.3653,0.7872,348,1512,534,-155,1643,1047,19,1,2,312.1351,3.3535,59.5213,1,0
0000986170,2,0.4638,-0.1782,-0.3652,0.7873,348,1511,531,-219,1611,1055,-6,-7,2,312.1335,3.3386,59.5230,1,0
0000986191,2,0.4631,-0.1781,-0.3654,0.7876,350,1510,533,-203,1607,1019,-36,-11,2,312.1190,3.3194,59.4339,1,0
0000986212,2,0.4620,-0.1778,-0.3658,0.7881,351,1508,540,-195,1615,1015,-52,-8,-2,312.0885,3.3042,59.2835,1,0
0000986233,2,0.4608,-0.1771,-0.3660,0.7889,351,1508,540,-239,1551,1011,-56,11,-3,312.0981,3.3171,59.1078,1,0
0000986254,2,0.4593,-0.1753,-0.3660,0.7902,349,1507,547,-207,1559,1015,-90,44,-1,312.2005,3.3917,58.8286,1,0
0000986275,2,0.4574,-0.1731,-0.3660,0.7918,349,1503,560,-167,1707,1079,-113,47,-2,312.3317,3.4755,58.4912,1,0
0000986296,2,0.4560,-0.1714,-0.3660,0.7929,346,1497,569,-167,1723,1063,-52,31,-8,312.4236,3.5515,58.2445,1,0
0000986317,2,0.4563,-0.1707,-0.3660,0.7929,344,1501,563,-167,1635,1055,22,21,-15,312.4687,3.6256,58.2378,1,0
0000986338,2,0.4572,-0.1706,-0.3659,0.7925,344,1501,563,-187,1687,1047,35,11,-15,312.4839,3.6865,58.3392,1,0
0000986359,2,0.4588,-0.1710,-0.3661,0.7913,339,1502,560,-183,1763,1031,89,-3,-19,312.4426,3.7472,58.5599,1,0
0000986380,2,0.4614,-0.1719,-0.3661,0.7896,337,1505,545,-159,1627,1151,129,-7,-26,312.4030,3.8015,58.9227,1,0
0000986401,2,0.4636,-0.1727,-0.3665,0.7880,333,1510,536,-199,1643,1135,86,-15,-40,312.3176,3.8743,59.2219,1,0
0000986422,2,0.4650,-0.1730,-0.3671,0.7869,333,1510,536,-203,1691,1131,48,0,-35,312.2413,3.9665,59.4013,1,0
0000986443,2,0.4657,-0.1725,-0.3674,0.7864,332,1512,534,-179,1787,1071,7,19,-23,312.2336,4.0629,59.4703,1,0
0000986464,2,0.4662,-0.1718,-0.3675,0.7862,329,1512,529,-187,1799,1047,10,21,-13,312.2684,4.1610,59.4900,1,0
0000986485,2,0.4668,-0.1713,-0.3673,0.7860,325,1514,532,-159,1707,1091,19,28,-5,312.3242,4.2210,59.5468,1,0
0000986506,2,0.4673,-0.1708,-0.3669,0.7860,326,1514,531,-179,1643,1087,9,21,-2,312.3937,4.2667,59.5851,1,0
0000986527,2,0.4675,-0.1706,-0.3668,0.7860,326,1514,531,-159,1759,1023,6,6,-1,312.4256,4.2910,59.5987,1,0
0000986548,2,0.4679,-0.1710,-0.3666,0.7857,325,1514,527,-175,1719,1047,31,-14,9,312.4191,4.2696,59.6657,1,0
0000986569,2,0.4683,-0.1719,-0.3664,0.7854,327,1517,527,-199,1703,1059,21,-19,12,312.3910,4.1981,59.7556,1,0
0000986590,2,0.4683,-0.1726,-0.3664,0.7853,330,1516,524,-215,1671,1055,8,-21,7,312.3482,4.1409,59.7927,1,0
0000986611,2,0.4681,-0.1730,-0.3665,0.7853,330,1516,524,-219,1659,1039,0,-16,6,312.3187,4.0962,59.7820,1,0
0000986632,2,0.4678,-0.1733,-0.3666,0.7853,328,1517,524,-195,1683,1023,-3,-17,3,312.2828,4.0581,59.7694,1,0
0000986653,2,0.4675,-0.1737,-0.3668,0.7853,330,1514,524,-219,1679,1023,3,-19,6,312.2421,4.0163,59.7521,1,0
0000986674,2,0.4675,-0.1743,-0.3667,0.7853,332,1515,521,-211,1687,1031,17,-7,8,312.2180,3.9650,59.7778,1,0
0000986695,2,0.4678,-0.1747,-0.3665,0.7851,333,1517,520,-211,1675,1039,20,-5,8,312.2162,3.9326,59.8379,1,0
0000986716,2,0.4680,-0.1750,-0.3662,0.7850,333,1517,520,-175,1647,1011,12,0,10,312.2290,3.9054,59.8758,1,0
0000986737,2,0.4681,-0.1752,-0.3660,0.7850,334,1516,519,-183,1663,995,3,-7,9,312.2344,3.8740,59.8962,1,0
0000986758,2,0.4679,-0.1755,-0.3660,0.7850,336,1516,519,-151,1667,991,1,-15,6,312.2192,3.8349,59.8935,1,0
0000986779,2,0.4677,-0.1760,-0.3661,0.7850,338,1518,519,-167,1679,987,1,-16,4,312.1792,3.7859,59.8884,1,0
0000986800,2,0.4675,-0.1765,-0.3662,0.7850,340,1517,517,-175,1679,983,-1,-19,6,312.1425,3.7432,59.8869,1,0
0000986821,2,0.4671,-0.1769,-0.3663,0.7850,340,1517,517,-203,1695,975,0,-24,4,312.0956,3.6952,59.8695,1,0
0000986842,2,0.4670,-0.1775,-0.3666,0.7848,339,1517,518,-199,1707,987,13,-23,-1,312.0334,3.6556,59.8862,1,0
0000986863,2,0.4674,-0.1780,-0.3667,0.7844,341,1517,512,-171,1703,1007,32,-10,-3,311.9893,3.6395,59.9571,1,0
0000986884,2,0.4679,-0.1784,-0.3667,0.7840,340,1519,512,-159,1699,975,15,-4,-1,311.9709,3.6394,60.0384,1,0
0000986905,2,0.4680,-0.1785,-0.3667,0.7840,340,1519,512,-159,1727,963,2,0,4,311.9681,3.6329,60.0555,1,0
0000986926,2,0.4683,-0.1786,-0.3664,0.7839,341,1519,510,-139,1719,983,19,9,11,311.9983,3.6209,60.0958,1,0
0000986947,2,0.4690,-0.1788,-0.3657,0.7838,341,1521,506,-151,1687,1007,29,13,18,312.0550,3.5972,60.1859,1,0
0000986968,2,0.4694,-0.1789,-0.3650,0.7838,344,1519,507,-139,1695,999,13,19,18,312.1299,3.5743,60.2495,1,0
0000986989,2,0.4697,-0.1787,-0.3642,0.7841,345,1519,507,-139,1715,979,1,19,18,312.2320,3.5507,60.2759,1,0
0000987010,2,0.4700,-0.1786,-0.3636,0.7842,345,1519,507,-139,1691,991,11,17,16,312.3057,3.5353,60.3011,1,0
0000987031,2,0.4704,-0.1786,-0.3630,0.7843,345,1520,505,-139,1663,991,19,15,15,312.3729,3.5201,60.3589,1,0
0000987052,2,0.4708,-0.1786,-0.3625,0.7842,348,1519,505,-163,1647,975,15,12,12,312.4296,3.5047,60.4135,1,0
0000987073,2,0.4713,-0.1786,-0.3620,0.7842,348,1522,502,-187,1599,927,17,18,8,312.4877,3.5043,60.4654,1,0
0000987094,2,0.4718,-0.1783,-0.3616,0.7841,348,1522,502,-219,1539,803,10,16,-4,312.5511,3.5323,60.5198,1,0
0000987115,2,0.4724,-0.1780,-0.3617,0.7838,346,1520,503,-191,1487,707,25,9,-24,312.5593,3.5981,60.5735,1,0
0000987136,2,0.4738,-0.1778,-0.3623,0.7827,343,1522,496,-271,1219,555,75,3,-58,312.5030,3.7263,60.7433,1,0
0000987157,2,0.4771,-0.1777,-0.3637,0.7800,332,1531,478,-403,1019,511,174,9,-132,312.3667,4.0015,61.1397,1,0
0000987178,2,0.4840,-0.1757,-0.3649,0.7757,302,1545,445,-515,887,551,299,37,-266,312.3840,4.6283,61.8873,1,0
0000987199,2,0.4971,-0.1716,-0.3698,0.7659,302,1545,445,-619,859,487,437,39,-464,312.1656,6.0133,63.3010,1,0
0000987220,2,0.5097,-0.1683,-0.3787,0.7540,244,1563,393,-723,923,435,516,9,-611,311.4843,7.5984,64.6870,1,0
0000987241,2,0.5248,-0.1617,-0.3865,0.7410,165,1587,326,-775,875,543,610,-23,-749,311.1526,9.5567,66.2728,1,0
0000987262,2,0.5406,-0.1578,-0.4003,0.7229,65,1603,245,-767,767,631,666,-59,-861,310.0374,11.8148,68.0628,1,0
0000987283,2,0.5563,-0.1477,-0.4110,0.7070,-53,1608,176,-995,1011,687,557,-167,-1018,309.6877,14.3854,69.6088,1,0
0000987304,2,0.5719,-0.1337,-0.4308,0.6852,-53,1608,176,-1355,1523,635,520,-309,-1182,308.5829,18.0299,70.9627,1,0
0000987325,2,0.5820,-0.1280,-0.4582,0.6595,-199,1594,112,-1475,1983,687,648,-466,-1351,306.0049,21.3821,71.8707,1,0
0000987346,2,0.5939,-0.1192,-0.4835,0.6319,-369,1560,29,-1259,2471,755,845,-645,-1499,303.8170,25.0679,72.9162,1,0
0000987367,2,0.6039,-0.1195,-0.5182,0.5938,-557,1498,-52,-999,2391,723,980,-852,-1582,299.7629,28.9436,73.9338,1,0
0000987388,2,0.6115,-0.1162,-0.5496,0.5573,-557,1498,-52,-955,2175,863,1009,-1131,-1657,296.0491,32.8663,74.4463,1,0
0000987409,2,0.6133,-0.1140,-0.5929,0.5093,-751,1401,-109,-1031,1939,975,1017,-1431,-1674,290.0194,37.6738,73.7303,1,0
0000987430,2,0.6056,-0.1248,-0.6356,0.4622,-941,1283,-122,-1255,1523,1115,969,-1628,-1512,282.2766,40.8805,71.8601,1,0
0000987451,2,0.5919,-0.1297,-0.6704,0.4282,-1092,1167,-71,-1619,1279,1459,680,-1704,-1253,275.2996,43.0418,68.6894,1,0
0000987472,2,0.5677,-0.1387,-0.7087,0.3952,-1202,1073,56,-1667,1687,1515,207,-1820,-1065,266.5750,44.0293,63.8465,1,0
0000987493,2,0.5350,-0.1379,-0.7440,0.3757,-1202,1073,56,-1603,1911,1379,-232,-2003,-971,258.3869,43.8282,57.3157,1,0
0000987514,2,0.4860,-0.1329,-0.7866,0.3569,-1271,980,246,-1139,1831,1311,-386,-1946,-855,248.4380,42.0495,48.4755,1,0
0000987535,2,0.4457,-0.1327,-0.8180,0.3386,-1297,894,441,-763,1711,1395,-332,-1804,-712,240.9464,39.7327,42.4368,1,0
0000987556,2,0.4084,-0.1324,-0.8415,0.3280,-1288,825,607,-459,1519,1655,-141,-1730,-621,235.6420,36.9033,37.8500,1,0
0000987577,2,0.3709,-0.1404,-0.8645,0.3089,-1251,775,755,-595,1379,1859,28,-1745,-552,230.0812,33.6734,34.5403,1,0
0000987598,2,0.3333,-0.1502,-0.8831,0.2942,-1251,775,755,-663,1279,1899,131,-1749,-449,225.6989,30.0210,32.2016,1,0
0000987619,2,0.2859,-0.1656,-0.9031,0.2741,-1188,743,890,-627,1159,1927,147,-1703,-367,220.6833,25.1958,30.2500,1,0
0000987640,2,0.2479,-0.1788,-0.9166,0.2577,-1104,727,1016,-559,1095,1959,150,-1644,-286,217.0184,21.2441,29.2656,1,0
0000987661,2,0.2112,-0.1906,-0.9267,0.2455,-1007,713,1123,-595,1023,1935,118,-1572,-224,214.1264,17.3325,28.6046,1,0
0000987682,2,0.1755,-0.2019,-0.9351,0.2322,-1007,713,1123,-655,927,1867,110,-1425,-170,211.3123,13.5632,28.1856,1,0
0000987703,2,0.1438,-0.2119,-0.9407,0.2227,-909,710,1213,-711,919,1903,129,-1240,-140,209.1742,10.1490,28.0336,1,0
0000987724,2,0.1100,-0.2236,-0.9450,0.2118,-816,714,1278,-799,883,1983,137,-1079,-122,206.8967,6.4950,28.1803,1,0
0000987745,2,0.0864,-0.2316,-0.9476,0.2021,-737,715,1329,-863,791,1999,105,-961,-142,205.0952,4.0211,28.3656,1,0
0000987766,2,0.0661,-0.2370,-0.9496,0.1943,-668,708,1376,-867,791,1975,28,-848,-190,203.6093,1.9115,28.4286,1,0
0000987787,2,0.0479,-0.2399,-0.9521,0.1836,-668,708,1376,-855,983,1775,-52,-697,-266,201.8790,0.1760,28.3237,1,0
0000987808,2,0.0334,-0.2413,-0.9544,0.1727,-618,688,1412,-807,1063,1671,-30,-613,-313,200.2271,-1.1224,28.1823,1,0
0000987829,2,0.0196,-0.2442,-0.9568,0.1569,-585,674,1437,-675,975,1679,26,-468,-396,198.0579,-2.2458,28.2768,1,0
0000987850,2,0.0127,-0.2457,-0.9586,0.1431,-571,655,1458,-579,923,1639,0,-360,-463,196.3138,-2.6411,28.3775,1,0
0000987871,2,0.0087,-0.2458,-0.9607,0.1287,-571,655,1458,-375,911,1683,-32,-243,-503,194.5898,-2.6716,28.3657,1,0
0000987892,2,0.0075,-0.2453,-0.9627,0.1143,-578,630,1471,-139,915,1795,-40,-141,-530,192.9408,-2.3883,28.3223,1,0
0000987913,2,0.0085,-0.2440,-0.9646,0.0995,-595,599,1484,-75,855,1827,-62,-78,-568,191.3131,-1.8474,28.2098,1,0
0000987934,2,0.0120,-0.2411,-0.9671,0.0804,-624,564,1490,75,711,1859,-93,-2,-596,189.2797,-0.8916,27.9274,1,0
0000987955,2,0.0158,-0.2386,-0.9688,0.0655,-655,529,1498,203,707,1875,-75,5,-570,187.7216,-0.0408,27.6634,1,0
0000987976,2,0.0186,-0.2365,-0.9701,0.0517,-655,529,1498,271,767,1791,-59,-30,-507,186.2640,0.6634,27.4362,1,0
0000987997,2,0.0199,-0.2352,-0.9710,0.0394,-674,498,1507,263,699,1783,-41,-86,-411,184.9275,1.1486,27.2783,1,0
0000988018,2,0.0196,-0.2336,-0.9717,0.0292,-683,472,1514,259,687,1731,-65,-96,-334,183.7831,1.4004,27.0773,1,0
0000988039,2,0.0192,-0.2307,-0.9726,0.0199,-687,450,1526,171,707,1703,-95,-58,-239,182.7276,1.6089,26.7306,1,0
0000988060,2,0.0194,-0.2275,-0.9735,0.0142,-694,425,1535,179,739,1711,-126,-16,-205,182.0894,1.8005,26.3463,1,0
0000988081,2,0.0207,-0.2241,-0.9743,0.0095,-694,425,1535,243,819,1703,-116,24,-172,181.5877,2.0650,25.9408,1,0
0000988102,2,0.0226,-0.2218,-0.9748,0.0063,-705,402,1541,247,939,1779,-62,54,-103,181.2805,2.3596,25.6667,1,0
0000988123,2,0.0239,-0.2214,-0.9749,0.0055,-710,397,1543,239,1027,1799,15,27,28,181.2233,2.5357,25.6125,1,0
0000988144,2,0.0233,-0.2222,-0.9747,0.0083,-707,402,1545,231,1151,1879,31,-27,144,181.5199,2.3903,25.7221,1,0
0000988165,2,0.0206,-0.2236,-0.9744,0.0138,-707,402,1545,147,1279,2087,59,-39,279,182.0714,1.9521,25.8858,1,0
0000988186,2,0.0179,-0.2260,-0.9737,0.0233,-691,422,1550,7,1239,2075,89,0,428,183.0634,1.3943,26.1767,1,0
0000988207,2,0.0156,-0.2272,-0.9731,0.0364,-672,451,1551,-43,1407,1899,-36,53,546,184.4661,0.7928,26.3116,1,0
0000988228,2,0.0136,-0.2258,-0.9727,0.0511,-656,466,1557,0,1539,1691,-63,66,575,186.0632,0.1961,26.1529,1,0
0000988249,2,0.0119,-0.2256,-0.9715,0.0713,-641,502,1558,-91,1463,1427,63,120,640,188.2696,-0.5146,26.1119,1,0
0000988270,2,0.0135,-0.2296,-0.9689,0.0912,-641,502,1558,-523,1115,1383,185,304,781,190.5437,-0.9023,26.5810,1,0
0000988291,2,0.0210,-0.2317,-0.9657,0.1154,-644,554,1541,-571,1075,1139,62,584,851,193.4539,-0.7377,26.9005,1,0
0000988312,2,0.0367,-0.2296,-0.9619,0.1440,-686,596,1512,-963,487,975,-15,1129,1007,197.0903,0.2537,26.8940,1,0
0000988333,2,0.0647,-0.2239,-0.9559,0.1788,-788,642,1444,-1031,323,1051,-92,1692,1069,201.7842,2.5035,26.8535,1,0
0000988354,2,0.1178,-0.2102,-0.9438,0.2261,-951,685,1322,-1123,507,1131,-126,2174,1002,208.6972,7.3168,26.9822,1,0
0000988375,2,0.1716,-0.1961,-0.9291,0.2623,-951,685,1322,-1383,1007,1115,-28,2450,884,214.6198,12.4742,27.7398,1,0
0000988396,2,0.2306,-0.1833,-0.9091,0.2946,-1126,745,1138,-1839,1319,931,142,2601,776,220.7344,18.1364,29.5763,1,0
0000988417,2,0.2933,-0.1721,-0.8832,0.3228,-1282,822,893,-2699,1467,775,336,2729,671,227.2946,24.0135,32.6982,1,0
0000988438,2,0.3710,-0.1585,-0.8453,0.3503,-1392,886,626,-3123,1103,571,324,2578,469,235.9681,31.0770,38.0433,1,0
0000988459,2,0.4228,-0.1411,-0.8176,0.3646,-1392,886,626,-3007,1023,471,-84,2188,125,242.2326,36.0431,41.8097,1,0
0000988480,2,0.4597,-0.1133,-0.7979,0.3729,-1456,884,435,-2511,2147,-387,-482,1663,-221,246.8438,40.4817,43.5125,1,0
0000988501,2,0.4869,-0.0916,-0.7845,0.3730,-1503,849,304,-2623,2555,-563,83,1171,-322,249.8360,44.0724,44.8739,1,0
0000988522,2,0.5159,-0.0951,-0.7735,0.3556,-1529,821,131,-2655,1543,687,1593,733,-457,251.6652,46.9261,48.8204,1,0
0000988543,2,0.5512,-0.1254,-0.7629,0.3136,-1545,770,-12,-2591,103,1939,1751,334,-510,252.4024,49.6821,56.1048,1,0
0000988564,2,0.5647,-0.1401,-0.7612,0.2863,-1545,770,-12,-2691,-667,2699,713,11,-515,251.5511,51.2188,58.9704,1,0
0000988585,2,0.5634,-0.1326,-0.7670,0.2769,-1562,717,-23,-2499,603,2811,-476,-173,-446,249.7524,52.2723,57.3738,1,0
0000988606,2,0.5523,-0.1093,-0.7770,0.2815,-1571,680,63,-2007,1175,2691,-1109,-294,-353,247.4857,52.8219,52.7274,1,0
0000988627,2,0.5368,-0.0856,-0.7866,0.2929,-1562,669,171,-939,1191,2539,-1047,-405,4,245.4817,52.5897,47.6728,1,0
0000988648,2,0.5193,-0.0700,-0.7939,0.3086,-1562,669,171,-139,1255,2351,-944,-434,310,244.3362,51.3792,43.7380,1,0
0000988669,2,0.4965,-0.0562,-0.7994,0.3336,-1531,697,279,499,1331,2295,-942,-482,425,244.2336,49.1425,40.0653,1,0
0000988690,2,0.4740,-0.0470,-0.8051,0.3534,-1487,722,399,1323,1739,1823,-929,-677,374,243.8783,46.8947,36.9387,1,0
0000988711,2,0.4472,-0.0406,-0.8135,0.3696,-1441,731,536,1495,2099,1479,-800,-888,284,242.8612,44.2377,33.6130,1,0
0000988732,2,0.4188,-0.0386,-0.8232,0.3814,-1389,731,675,1735,2391,1163,-508,-1081,169,241.5120,41.3110,30.6560,1,0
0000988753,2,0.3817,-0.0467,-0.8380,0.3871,-1389,731,675,1755,2367,1079,-122,-1264,71,239.1432,37.1242,27.9605,1,0
0000988774,2,0.3513,-0.0645,-0.8509,0.3852,-1329,737,798,1523,2031,1123,236,-1431,60,236.9218,33.2414,27.0480,1,0
0000988795,2,0.3210,-0.0889,-0.8628,0.3803,-1254,768,911,1207,1491,1423,442,-1520,68,234.7206,29.0997,27.0587,1,0
0000988816,2,0.2896,-0.1167,-0.8735,0.3736,-1166,811,1011,843,1059,1835,517,-1539,74,232.4738,24.7483,27.5677,1,0
0000988837,2,0.2594,-0.1444,-0.8819,0.3663,-1082,862,1098,519,843,2075,526,-1449,66,230.3722,20.5947,28.3684,1,0
0000988858,2,0.2243,-0.1770,-0.8897,0.3562,-1082,862,1098,-71,599,2527,525,-1292,36,227.8421,15.8508,29.5656,1,0
0000988879,2,0.2012,-0.2000,-0.8933,0.3486,-1005,919,1167,-499,407,2563,501,-1083,58,226.1337,12.7115,30.6753,1,0
0000988900,2,0.1820,-0.2187,-0.8951,0.3433,-945,970,1226,-755,215,2203,317,-851,96,224.8430,10.1187,31.6421,1,0
0000988921,2,0.1668,-0.2287,-0.8966,0.3405,-914,1000,1285,-823,347,1947,89,-575,56,223.9518,8.2429,31.9463,1,0
0000988942,2,0.1585,-0.2326,-0.8980,0.3383,-914,1000,1285,-1099,463,1987,7,-113,-41,223.3861,7.3156,31.9549,1,0
0000988963,2,0.1609,-0.2313,-0.8986,0.3364,-930,1015,1327,-1571,595,1659,9,205,-119,223.2480,7.6739,31.9124,1,0
0000988984,2,0.1711,-0.2269,-0.8987,0.3342,-997,1023,1343,-1667,647,1471,1,451,-230,223.3669,8.9627,31.9062,1,0
0000989005,2,0.1871,-0.2203,-0.8986,0.3301,-1105,1017,1339,-1963,771,1323,25,671,-369,223.4962,10.9998,31.9546,1,0
0000989026,2,0.2091,-0.2131,-0.8978,0.3237,-1250,1002,1297,-2359,719,1283,133,811,-463,223.6423,13.7422,32.2313,1,0
0000989047,2,0.2335,-0.2065,-0.8964,0.3150,-1250,1002,1297,-2815,815,1139,154,876,-586,223.6738,16.7755,32.7108,1,0
0000989068,2,0.2665,-0.1981,-0.8940,0.3010,-1407,972,1230,-2715,819,1239,299,890,-619,223.5642,20.9263,33.4353,1,1
0000989089,2,0.2938,-0.1974,-0.8898,0.2880,-1552,956,1127,-2755,463,1307,518,840,-578,223.5321,24.1552,34.7800,1,1
0000989110,2,0.3198,-0.1980,-0.8848,0.2750,-1680,925,1007,-2855,-79,1203,411,816,-568,223.5952,27.1912,36.2765,1,1
0000989131,2,0.3438,-0.1911,-0.8808,0.2634,-1793,846,905,-2491,151,1095,68,821,-626,223.6204,30.3328,36.8660,1,1
0000989152,2,0.3652,-0.1781,-0.8780,0.2529,-1793,846,905,-2215,523,1015,-102,772,-642,223.4834,33.4524,36.6049,1,1
0000989173,2,0.3888,-0.1625,-0.8744,0.2406,-1879,750,806,-2091,691,963,-40,675,-541,223.2380,36.9924,36.1595,1,1
0000989194,2,0.4061,-0.1531,-0.8705,0.2320,-1940,669,706,-2155,555,1059,15,638,-465,223.1970,39.4909,36.1262,1,1
0000989215,2,0.4225,-0.1440,-0.8664,0.2240,-1977,593,606,-2247,427,1315,-38,633,-461,223.2091,41.8738,36.1103,1,1
0000989236,2,0.4382,-0.1318,-0.8623,0.2170,-1977,593,606,-2303,603,1443,-183,644,-469,223.1895,44.3043,35.6951,1,1
0000989257,2,0.4532,-0.1169,-0.8579,0.2119,-2001,506,512,-2307,671,1467,-290,658,-438,223.2278,46.7286,34.9420,1,1
0000989278,2,0.4711,-0.0980,-0.8518,0.2073,-2007,432,421,-2267,675,1567,-263,634,-365,223.4561,49.6312,34.0047,1,1
0000989299,2,0.4843,-0.0853,-0.8464,0.2047,-1995,380,342,-2203,691,1563,-231,590,-279,223.8152,51.7036,33.5645,1,1
0000989320,2,0.4958,-0.0732,-0.8408,0.2047,-1977,348,275,-2183,731,1603,-316,541,-175,224.4726,53.4932,33.2341,1,1
0000989341,2,0.5047,-0.0606,-0.8357,0.2079,-1977,348,275,-2047,811,1631,-404,441,-85,225.3250,54.9233,32.7819,1,1
0000989362,2,0.5103,-0.0490,-0.8316,0.2136,-1947,340,240,-1923,839,1651,-405,271,55,226.2548,55.8767,32.2732,1,1
0000989383,2,0.5131,-0.0391,-0.8276,0.2243,-1912,357,229,-1747,831,1691,-385,157,223,227.8123,56.2748,32.0783,1,1
0000989404,2,0.5124,-0.0340,-0.8246,0.2372,-1872,405,238,-1551,759,1879,-424,75,385,229.6198,55.9990,32.3368,1,1
0000989425,2,0.5096,-0.0307,-0.8218,0.2530,-1872,405,238,-1391,763,2095,-422,-22,495,231.7504,55.2927,32.7882,1,1
0000989446,2,0.5041,-0.0301,-0.8195,0.2709,-1824,472,270,-1167,731,2275,-406,-133,619,233.9731,54.0853,33.3556,1,1
0000989467,2,0.4961,-0.0324,-0.8173,0.2914,-1769,560,318,-923,687,2203,-386,-295,797,236.3891,52.3698,34.0788,1,1
0000989488,2,0.4807,-0.0398,-0.8152,0.3207,-1694,664,393,-575,767,1951,-393,-451,921,239.3706,49.3026,34.9085,1,1
0000989509,2,0.4644,-0.0485,-0.8140,0.3454,-1608,769,485,-283,859,1811,-352,-581,959,241.4849,46.2696,35.3305,1,1
0000989530,2,0.4461,-0.0603,-0.8133,0.3686,-1608,769,485,211,1023,1731,-235,-711,958,243.1860,42.9373,35.6734,1,1
0000989551,2,0.4245,-0.0761,-0.8134,0.3903,-1507,874,588,435,1107,1419,-155,-879,986,244.4265,39.1424,35.9381,1,1
0000989572,2,0.4003,-0.0950,-0.8134,0.4113,-1382,977,698,591,1143,1231,-57,-1025,1030,245.3914,34.9649,36.1771,1,1
0000989593,2,0.3678,-0.1241,-0.8123,0.4352,-1245,1083,794,671,1139,1087,106,-1100,1042,246.2921,29.3094,36.7497,1,1
0000989614,2,0.3421,-0.1513,-0.8101,0.4515,-1091,1189,872,655,1003,1043,239,-1132,1019,246.7796,24.6808,37.5761,1,1
0000989635,2,0.3165,-0.1793,-0.8067,0.4657,-1091,1189,872,591,711,999,236,-1099,964,247.0639,20.1009,38.4608,1,1
0000989656,2,0.2916,-0.2037,-0.8029,0.4783,-940,1277,934,387,667,1063,134,-1000,863,247.2270,15.8621,39.0543,1,1
0000989677,2,0.2682,-0.2225,-0.7994,0.4894,-807,1341,998,267,715,1163,-32,-842,692,247.3009,12.1793,39.2364,1,1
0000989698,2,0.2413,-0.2379,-0.7966,0.5006,-705,1374,1068,-15,847,1283,-152,-686,528,247.2616,8.4159,38.8560,1,1
0000989719,2,0.2247,-0.2435,-0.7959,0.5068,-705,1374,1068,-551,1199,1483,-206,-441,312,247.1869,6.3655,38.2519,1,1
0000989740,2,0.2161,-0.2437,-0.7966,0.5093,-659,1383,1126,-959,1579,1483,-157,-127,40,247.0686,5.5058,37.6773,1,1
0000989761,2,0.2169,-0.2409,-0.7985,0.5074,-677,1383,1158,-1503,1671,1363,-27,134,-216,246.8511,5.8496,37.4345,1,1
0000989782,2,0.2254,-0.2347,-0.8021,0.5008,-762,1364,1161,-1843,1863,1323,0,438,-591,246.4166,7.2648,37.3832,1,1
0000989803,2,0.2464,-0.2207,-0.8097,0.4847,-912,1327,1130,-2343,2191,971,86,651,-877,245.4251,10.6697,37.3606,1,0
0000989824,2,0.2715,-0.2091,-0.8156,0.4663,-912,1327,1130,-2651,1839,695,313,820,-1013,244.4613,14.3463,37.8314,1,0
0000989845,2,0.3022,-0.1994,-0.8190,0.4451,-1090,1278,1038,-2711,1235,771,483,965,-1068,243.6411,18.5151,38.9146,1,0
0000989866,2,0.3356,-0.1875,-0.8206,0.4228,-1272,1210,910,-2895,739,803,380,1064,-1107,243.0239,23.0960,40.0261,1,0
0000989887,2,0.3677,-0.1701,-0.8212,0.4018,-1437,1109,778,-2907,799,763,138,1157,-1042,242.6123,27.8589,40.5555,1,0
0000989908,2,0.4065,-0.1468,-0.8173,0.3810,-1437,1109,778,-2619,715,795,174,1185,-771,242.9383,33.5546,41.2681,1,0
0000989929,2,0.4366,-0.1326,-0.8093,0.3700,-1553,1024,626,-2251,411,843,223,1187,-504,244.2246,37.4849,42.6511,1,0
0000989950,2,0.4657,-0.1195,-0.7980,0.3634,-1618,970,464,-2163,347,911,114,1251,-353,246.3904,41.0234,44.5425,1,0
0000989971,2,0.4942,-0.1022,-0.7841,0.3612,-1651,924,307,-2051,559,1007,-186,1397,-244,249.4256,44.5234,46.5116,1,0
0000989992,2,0.5215,-0.0796,-0.7675,0.3642,-1659,886,157,-1915,919,1015,-446,1482,-160,253.4539,47.9531,48.5529,1,0
0000990013,2,0.5527,-0.0450,-0.7433,0.3742,-1659,886,157,-1815,1167,963,-664,1513,-72,259.7986,51.9947,51.2900,1,0
0000990034,2,0.5742,-0.0146,-0.7218,0.3861,-1644,868,31,-1751,1475,783,-800,1480,-12,265.7859,54.8483,53.7985,1,0
0000990055,2,0.5926,0.0160,-0.6996,0.3989,-1612,864,-69,-1739,1695,647,-834,1396,8,272.1874,57.3418,56.5904,1,0
0000990076,2,0.6085,0.0438,-0.6776,0.4107,-1571,874,-157,-1699,2107,427,-659,1233,72,278.8015,59.3919,59.8768,1,0
0000990097,2,0.6232,0.0648,-0.6565,0.4201,-1520,896,-232,-1727,1987,227,-392,1042,176,285.4026,60.7700,63.8927,1,0
0000990118,2,0.6397,0.0792,-0.6331,0.4286,-1520,896,-232,-1563,1491,327,-193,815,272,292.8326,61.3893,69.3303,1,0
0000990139,2,0.6492,0.0845,-0.6176,0.4359,-1461,932,-288,-1371,1211,667,-227,568,356,297.4807,61.1071,72.8206,1,0
0000990160,2,0.6524,0.0877,-0.6049,0.4481,-1402,985,-290,-1139,1355,915,-458,296,474,300.5830,60.2044,74.4210,1,0
0000990181,2,0.6483,0.0885,-0.5948,0.4670,-1337,1060,-232,-699,1679,1291,-662,-58,659,302.1386,58.6387,73.9803,1,0
0000990202,2,0.6385,0.0850,-0.5872,0.4901,-1337,1060,-232,-259,1779,1563,-708,-380,759,302.3499,56.4341,72.0847,1,0
0000990223,2,0.6174,0.0732,-0.5843,0.5215,-1268,1141,-130,-19,1791,1575,-713,-727,779,300.5570,52.9361,67.8959,1,0
0000990244,2,0.5945,0.0581,-0.5876,0.5458,-1196,1217,6,223,1867,1567,-621,-1036,745,297.8691,49.6488,63.7561,1,0
0000990265,2,0.5697,0.0369,-0.5948,0.5659,-1117,1277,144,431,1891,1643,-375,-1280,697,294.6502,46.0116,59.9145,1,0
0000990286,2,0.5438,0.0081,-0.6062,0.5804,-1034,1329,264,439,1471,1707,-49,-1589,618,290.8791,41.9599,56.6780,1,0
0000990307,2,0.5166,-0.0259,-0.6204,0.5895,-1034,1329,264,423,931,1911,44,-1762,514,286.7903,37.6210,54.0596,1,0
0000990328,2,0.4776,-0.0704,-0.6423,0.5953,-947,1370,379,443,739,1971,33,-1922,370,281.2121,31.9819,50.9897,1,0
0000990349,2,0.4424,-0.1060,-0.6621,0.5955,-859,1400,491,395,483,1979,37,-2020,251,276.5065,27.3547,48.7036,1,0
0000990370,2,0.4063,-0.1410,-0.6820,0.5915,-776,1421,595,251,283,2075,57,-2021,134,271.8654,22.7952,46.8903,1,0
0000990391,2,0.3697,-0.1732,-0.7017,0.5838,-776,1421,595,71,203,2115,16,-1948,-48,267.2869,18.4614,45.3507,1,0
0000990412,2,0.3340,-0.2011,-0.7213,0.5725,-705,1434,689,-211,139,2259,-80,-1799,-208,262.7939,14.5726,44.0135,1,0
0000990433,2,0.2927,-0.2264,-0.7450,0.5551,-657,1433,778,-555,255,2471,-117,-1547,-368,257.5162,10.6463,42.3686,1,0
0000990454,2,0.2662,-0.2404,-0.7623,0.5387,-643,1421,854,-1223,427,2619,-86,-1267,-483,253.6852,8.4393,41.3381,1,0
0000990475,2,0.2463,-0.2503,-0.7777,0.5214,-658,1403,912,-1599,351,2387,-103,-962,-558,250.2768,7.0150,40.6146,1,0
0000990496,2,0.2326,-0.2526,-0.7921,0.5046,-658,1403,912,-1639,331,2295,-193,-518,-713,247.3479,6.5208,39.7259,1,0
0000990517,2,0.2274,-0.2484,-0.8059,0.4869,-719,1370,962,-2135,603,2155,-192,-106,-869,244.8016,7.1583,38.8126,1,0
0000990538,2,0.2339,-0.2357,-0.8214,0.4638,-829,1314,982,-2451,695,1827,-107,202,-964,242.1711,9.5323,37.7829,1,0
0000990559,2,0.2468,-0.2233,-0.8317,0.4443,-969,1245,966,-2643,659,1399,-45,420,-1020,240.3580,12.2431,37.1967,1,0
0000990580,2,0.2652,-0.2088,-0.8403,0.4242,-1126,1158,919,-2891,827,1291,-21,663,-1088,238.7762,15.5796,36.7236,1,0
0000990601,2,0.2890,-0.1916,-0.8469,0.4031,-1126,1158,919,-3099,987,983,23,840,-1138,237.3762,19.5688,36.2814,1,0
0000990622,2,0.3229,-0.1695,-0.8516,0.3765,-1287,1052,832,-2899,943,595,69,1009,-1106,235.9179,24.9829,35.9324,1,0
0000990643,2,0.3535,-0.1508,-0.8520,0.3554,-1429,935,715,-2631,907,459,105,1141,-1089,235.0711,29.6774,35.8037,1,0
0000990664,2,0.3862,-0.1325,-0.8496,0.3340,-1546,813,571,-2447,1031,427,183,1211,-1061,234.4546,34.5859,35.9356,1,0
0000990685,2,0.4189,-0.1172,-0.8446,0.3121,-1546,813,571,-2339,1087,287,318,1189,-991,234.0168,39.3786,36.4777,1,0
0000990706,2,0.4510,-0.1061,-0.8374,0.2901,-1631,705,412,-2371,935,231,453,1130,-864,233.8456,43.9333,37.5928,1,0
0000990727,2,0.4892,-0.0952,-0.8257,0.2643,-1679,610,254,-2491,747,327,413,1143,-772,234.2191,49.2457,39.5585,1,0
0000990748,2,0.5191,-0.0841,-0.8138,0.2473,-1701,522,99,-2535,739,431,236,1215,-679,235.3431,53.4487,41.3838,1,0
0000990769,2,0.5481,-0.0695,-0.7995,0.2358,-1697,462,-48,-2723,659,615,-2,1276,-536,237.5640,57.5250,43.4995,1,0
0000990790,2,0.5755,-0.0504,-0.7826,0.2317,-1697,462,-48,-2655,939,719,-341,1363,-384,241.3216,61.3422,46.1119,1,0
0000990811,2,0.6015,-0.0254,-0.7629,0.2357,-1670,430,-180,-2679,1179,707,-730,1466,-203,247.0519,64.9236,49.5277,1,0
0000990832,2,0.6330,0.0086,-0.7327,0.2499,-1623,440,-312,-2747,1127,891,-841,1584,8,258.2769,68.7277,56.8408,1,0
0000990853,2,0.6587,0.0346,-0.7024,0.2674,-1547,502,-439,-2519,1371,1111,-958,1717,246,271.8817,70.7098,66.8636,1,0
0000990874,2,0.6831,0.0606,-0.6673,0.2905,-1446,601,-549,-2355,1703,1199,-1122,1768,407,288.5094,71.2469,79.3662,1,0
0000990895,2,0.7045,0.0857,-0.6290,0.3173,-1446,601,-549,-2083,2083,1211,-1193,1707,551,304.8926,70.1635,91.2606,1,0
0000990916,2,0.7222,0.1065,-0.5891,0.3464,-1329,729,-625,-1947,2111,1159,-1164,1573,806,318.0831,67.6329,99.9745,1,0
0000990937,2,0.7399,0.1239,-0.5374,0.3852,-1189,877,-667,-1623,1975,983,-1100,1396,1003,329.4955,62.9602,106.0366,1,0
0000990958,2,0.7492,0.1293,-0.4982,0.4169,-1040,1033,-667,-1487,1679,923,-1014,1109,1161,334.7535,58.6755,107.4593,1,0
0000990979,2,0.7526,0.1282,-0.4633,0.4501,-1040,1033,-667,-1215,1523,779,-1057,737,1244,337.3785,54.3633,106.5091,1,0
0000991000,2,0.7490,0.1218,-0.4341,0.4855,-896,1183,-612,-1207,1679,851,-1111,338,1288,338.0554,50.2317,103.7062,1,0
0000991021,2,0.7393,0.1101,-0.4109,0.5219,-758,1312,-507,-1303,1727,947,-1117,-64,1330,337.3575,46.2658,99.7840,1,0
0000991042,2,0.7206,0.0889,-0.3883,0.5675,-629,1428,-377,-1479,1667,815,-1128,-359,1313,335.4008,41.3376,94.1511,1,0
0000991063,2,0.7008,0.0673,-0.3769,0.6019,-503,1511,-237,-1607,1575,807,-1022,-662,1242,333.0492,37.5333,89.3737,1,0
0000991084,2,0.6794,0.0409,-0.3718,0.6313,-503,1511,-237,-1587,1531,799,-810,-930,1144,330.1214,33.8328,84.9336,1,0
0000991105,2,0.6583,0.0099,-0.3715,0.6546,-385,1561,-124,-1495,1363,899,-591,-1135,1055,326.8120,30.1430,81.1440,1,0
0000991126,2,0.6368,-0.0242,-0.3762,0.6726,-277,1594,-36,-1443,1271,907,-394,-1395,897,323.1311,26.5264,77.8850,1,0
0000991147,2,0.6096,-0.0712,-0.3889,0.6871,-183,1611,19,-1431,1035,1079,-227,-1582,755,317.8944,22.1029,74.5564,1,0
0000991168,2,0.5876,-0.1105,-0.4038,0.6925,-183,1611,19,-1375,839,1235,-98,-1711,608,313.3101,18.7559,72.4781,1,0
0000991189,2,0.5656,-0.1507,-0.4213,0.6927,-107,1621,45,-1267,563,1343,24,-1800,501,308.4860,15.5315,70.9389,1,0
0000991210,2,0.5438,-0.1915,-0.4399,0.6885,-47,1625,49,-1071,119,1511,65,-1842,398,303.5408,12.4011,69.9260,1,0
0000991231,2,0.5201,-0.2296,-0.4601,0.6820,-6,1628,50,-959,-3,1635,-16,-1854,232,298.5444,9.5232,68.9919,1,0
0000991252,2,0.4881,-0.2721,-0.4889,0.6698,3,1632,63,-859,355,1603,-133,-1843,15,292.1028,6.4746,67.8024,1,0
0000991273,2,0.4617,-0.2998,-0.5152,0.6569,3,1632,63,-903,535,1431,-150,-1793,-208,286.8790,4.7021,66.7202,1,0
0000991294,2,0.4360,-0.3236,-0.5434,0.6402,-21,1632,85,-831,391,1159,-184,-1777,-385,281.5511,3.4158,65.7304,1,0
0000991315,2,0.4102,-0.3439,-0.5741,0.6196,-77,1632,118,-387,219,795,-285,-1753,-587,275.9982,2.5693,64.6992,1,0
0000991336,2,0.3841,-0.3575,-0.6069,0.5970,-160,1623,178,-143,183,747,-407,-1631,-840,270.4482,2.2505,63.2735,1,0
0000991357,2,0.3542,-0.3673,-0.6497,0.5634,-275,1598,256,-119,439,739,-453,-1521,-1055,263.4380,2.6624,61.3335,1,0
0000991378,2,0.3329,-0.3688,-0.6849,0.5331,-275,1598,256,-311,847,659,-473,-1398,-1262,257.8518,3.5974,59.5051,1,0
0000991399,2,0.3162,-0.3663,-0.7194,0.4983,-415,1555,344,-483,879,755,-403,-1232,-1460,252.2639,5.1564,57.7301,1,0
0000991420,2,0.3051,-0.3611,-0.7521,0.4593,-581,1484,420,-735,1019,883,-298,-1067,-1651,246.7208,7.3125,56.1065,1,0
0000991462,2,0.2958,-0.3380,-0.8191,0.3569,-767,1378,494,-1531,1423,763,-217,-758,-1999,233.9890,14.0794,52.0491,1,0
0000991483,2,0.2979,-0.3235,-0.8440,0.3070,-957,1237,561,-1939,1379,659,-162,-600,-2076,228.2712,17.7131,49.9246,1,0
0000991504,2,0.3032,-0.3087,-0.8641,0.2573,-1135,1062,610,-2227,1215,731,-52,-427,-1978,222.7374,21.4108,47.7815,1,0
0000991525,2,0.3112,-0.2954,-0.8780,0.2120,-1276,890,633,-2627,1179,715,10,-213,-1781,217.8190,24.9158,45.8448,1,0
0000991546,2,0.3229,-0.2810,-0.8873,0.1714,-1394,713,628,-3159,1219,559,-36,78,-1680,213.5360,28.4716,43.8889,1,0
0000991567,2,0.3436,-0.2598,-0.8940,0.1235,-1394,713,628,-3411,1127,503,-75,309,-1706,208.5721,33.3835,41.1388,1,0
0000991588,2,0.3656,-0.2391,-0.8952,0.0882,-1502,518,592,-3435,987,367,-203,565,-1626,204.8978,37.7671,38.5487,1,0
0000991609,2,0.3926,-0.2158,-0.8920,0.0605,-1585,335,524,-3423,1139,247,-326,893,-1379,202.0602,42.3975,35.8528,1,0
0000991630,2,0.4243,-0.1934,-0.8836,0.0424,-1644,195,400,-3603,1251,7,-350,1204,-1045,200.5879,47.1761,33.7554,1,0
0000991651,2,0.4603,-0.1747,-0.8697,0.0339,-1684,117,226,-3775,783,19,-310,1478,-686,200.9547,52.0804,33.0454,1,0
0000991672,2,0.5113,-0.1558,-0.8444,0.0349,-1684,117,226,-3867,391,99,-379,1869,-361,204.6946,58.5037,34.8850,1,0
0000991693,2,0.5579,-0.1385,-0.8170,0.0452,-1690,86,5,-3831,115,187,-625,2210,-171,211.4565,64.0410,39.2184,1,0
0000991714,2,0.6070,-0.1165,-0.7835,0.0639,-1658,97,-246,-3751,455,23,-929,2372,-42,223.4586,69.4455,47.7956,1,0
0000991735,2,0.6511,-0.0902,-0.7483,0.0890,-1588,158,-461,-2923,935,-339,-1158,2188,85,241.4707,73.4195,61.5645,1,0
0000991756,2,0.6863,-0.0653,-0.7147,0.1180,-1588,158,-461,-2975,1287,-543,-1184,1811,299,263.3660,74.9227,79.0597,1,0
0000991777,2,0.7204,-0.0392,-0.6747,0.1557,-1499,257,-614,-3071,1251,-463,-1072,1664,383,287.9860,73.7201,98.4429,1,0
0000991798,2,0.7446,-0.0238,-0.6417,0.1822,-1397,367,-742,-2947,1043,-175,-828,1622,430,303.0491,71.2607,110.0156,1,0
0000991819,2,0.7675,-0.0132,-0.6076,0.2038,-1277,466,-856,-2435,847,35,-596,1594,455,314.2756,68.0207,118.4912,1,0
0000991840,2,0.7885,-0.0066,-0.5733,0.2226,-1151,561,-948,-1975,415,355,-494,1476,508,322.2088,64.3194,124.1825,1,0
0000991861,2,0.8049,-0.0009,-0.5418,0.2420,-1151,561,-948,-1567,147,499,-711,1240,521,327.4291,60.6604,127.1311,1,0
0000991882,2,0.8173,0.0107,-0.5063,0.2749,-1034,672,-989,-1303,219,467,-1082,1059,492,331.8248,56.4638,127.4770,1,0
0000991903,2,0.8200,0.0241,-0.4820,0.3078,-928,812,-973,-1155,619,363,-1340,884,486,334.2885,53.6358,125.6836,1,0
0000991924,2,0.8178,0.0371,-0.4603,0.3435,-841,954,-913,-1143,851,395,-1384,692,515,335.9777,51.1067,122.8123,1,0
0000991945,2,0.8121,0.0474,-0.4415,0.3785,-841,954,-913,-1083,887,411,-1334,483,523,336.9780,48.8531,119.4499,1,0
0000991966,2,0.8031,0.0550,-0.4273,0.4117,-769,1084,-828,-947,743,415,-1245,217,496,337.2666,47.0148,115.7213,1,0
0000991987,2,0.7880,0.0609,-0.4153,0.4505,-715,1188,-725,-955,607,467,-1209,-12,463,336.7503,45.1760,110.6989,1,0
0000992008,2,0.7716,0.0636,-0.4113,0.4810,-682,1277,-600,-1147,775,643,-1238,-221,416,335.5168,44.1017,106.0825,1,0
0000992029,2,0.7524,0.0651,-0.4111,0.5105,-660,1348,-461,-1159,1071,847,-1200,-377,357,333.7858,43.2479,101.1434,1,0
0000992050,2,0.7322,0.0644,-0.4142,0.5369,-660,1348,-461,-1111,1107,1035,-1058,-542,295,331.6165,42.5082,96.2619,1,0
0000992071,2,0.7111,0.0605,-0.4218,0.5592,-649,1394,-329,-1079,1235,1363,-866,-783,212,328.8049,41.8769,91.4414,1,0
0000992092,2,0.6832,0.0513,-0.4381,0.5820,-650,1422,-202,-943,1323,1523,-751,-1023,99,324.2426,41.1753,85.3321,1,0
0000992113,2,0.6586,0.0404,-0.4579,0.5958,-663,1431,-77,-823,1367,1723,-618,-1251,-9,319.5433,40.6404,80.1862,1,0
0000992134,2,0.6322,0.0266,-0.4821,0.6059,-684,1428,41,-551,1371,1775,-514,-1434,-98,314.1068,39.9371,74.9486,1,0
0000992155,2,0.6045,0.0104,-0.5091,0.6126,-684,1428,41,-243,1323,1799,-456,-1571,-152,308.2239,38.9192,69.7700,1,0
0000992176,2,0.5738,-0.0070,-0.5381,0.6174,-694,1413,168,-75,1295,1739,-456,-1699,-254,302.0427,37.5088,64.5105,1,0
0000992197,2,0.5329,-0.0288,-0.5764,0.6188,-706,1391,295,-15,1267,1691,-424,-1754,-353,294.1592,35.3604,58.1399,1,0
0000992218,2,0.4987,-0.0460,-0.6076,0.6164,-710,1361,416,-15,1339,1603,-374,-1763,-429,287.9343,33.3228,53.3905,1,0
0000992239,2,0.4647,-0.0632,-0.6385,0.6103,-710,1361,416,27,1479,1471,-290,-1747,-506,281.9099,31.0815,49.1584,1,0
0000992260,2,0.4326,-0.0808,-0.6681,0.5999,-712,1326,521,39,1391,1491,-151,-1695,-571,276.1614,28.7598,45.6675,1,0
0000992281,2,0.4029,-0.0985,-0.6963,0.5859,-713,1290,602,15,1051,1663,-51,-1603,-640,270.7083,26.4609,42.8816,1,0
0000992302,2,0.3680,-0.1179,-0.7294,0.5645,-721,1252,678,7,935,1771,-66,-1500,-729,264.2318,23.8108,39.9426,1,0
0000992323,2,0.3401,-0.1302,-0.7547,0.5457,-736,1205,750,-139,807,1871,-113,-1419,-777,259.2586,21.7929,37.6939,1,0
0000992344,2,0.3132,-0.1394,-0.7784,0.5259,-736,1205,750,-351,707,1939,-163,-1301,-822,254.5311,19.9400,35.5394,1,0
0000992365,2,0.2885,-0.1451,-0.8007,0.5045,-756,1150,825,-495,707,1935,-198,-1104,-918,250.0091,18.3953,33.4869,1,0
0000992386,2,0.2674,-0.1471,-0.8215,0.4817,-792,1081,891,-663,747,1915,-199,-930,-978,245.6926,17.3194,31.5300,1,0
0000992407,2,0.2506,-0.1446,-0.8444,0.4508,-853,1008,931,-1039,919,2011,-110,-530,-1079,240.7010,17.0265,29.4471,1,0
0000992428,2,0.2482,-0.1414,-0.8590,0.4248,-853,1008,931,-1439,899,2019,122,-169,-1086,237.1834,17.8368,28.4681,1,0
0000992449,2,0.2542,-0.1405,-0.8697,0.3990,-945,942,927,-1771,663,1719,322,20,-1013,234.1820,19.2757,28.2854,1,0
0000992470,2,0.2632,-0.1415,-0.8779,0.3741,-1037,888,895,-1931,587,1511,360,98,-955,231.5116,20.8690,28.4615,1,0
0000992491,2,0.2746,-0.1409,-0.8842,0.3505,-1133,831,856,-2239,343,1551,347,256,-909,229.1284,22.7626,28.6224,1,0
0000992512,2,0.2945,-0.1387,-0.8880,0.3248,-1227,776,791,-2819,331,1499,344,514,-773,226.9266,25.6552,29.0378,1,0
0000992533,2,0.3152,-0.1361,-0.8877,0.3067,-1227,776,791,-3095,583,1355,407,682,-710,225.7976,28.4380,29.6457,1,0
0000992554,2,0.3384,-0.1350,-0.8851,0.2895,-1321,731,702,-3007,675,975,465,718,-641,225.0293,31.3921,30.6307,1,0
0000992575,2,0.3590,-0.1340,-0.8819,0.2747,-1394,688,618,-2583,443,671,257,582,-513,224.4765,34.0325,31.5385,1,0
0000992596,2,0.3742,-0.1285,-0.8797,0.2639,-1446,640,569,-2171,427,283,13,460,-444,223.9851,36.1897,31.6611,1,0
0000992617,2,0.3843,-0.1146,-0.8795,0.2562,-1481,586,553,-2071,771,-19,-304,291,-376,223.2209,38.1188,30.4320,1,0
0000992638,2,0.3897,-0.1020,-0.8800,0.2517,-1481,586,553,-2155,1003,-127,-263,256,-340,222.5362,39.3891,29.0820,1,0
0000992659,2,0.3965,-0.0938,-0.8793,0.2466,-1504,545,534,-2267,983,67,-43,299,-289,222.0136,40.6218,28.3562,1,0
0000992680,2,0.4057,-0.0905,-0.8773,0.2401,-1527,518,491,-2231,979,311,176,379,-272,221.6846,41.9356,28.3863,1,0
0000992701,2,0.4173,-0.0899,-0.8739,0.2324,-1545,500,435,-2159,863,671,238,417,-269,221.5145,43.4371,28.9138,1,0
0000992722,2,0.4332,-0.0898,-0.8687,0.2229,-1545,500,435,-2263,619,955,224,469,-242,221.5161,45.4451,29.8389,1,0
0000992743,2,0.4465,-0.0878,-0.8636,0.2173,-1561,480,373,-2339,595,1075,102,548,-203,221.8264,47.1339,30.5325,1,0
0000992764,2,0.4613,-0.0822,-0.8570,0.2144,-1576,466,304,-2251,623,1203,-40,659,-162,222.5788,49.0573,31.1249,1,0
0000992785,2,0.4771,-0.0738,-0.8491,0.2145,-1586,458,233,-2147,571,1207,-196,761,-87,223.8349,51.1241,31.7263,1,0
0000992806,2,0.4935,-0.0629,-0.8397,0.2177,-1590,457,157,-2035,487,1111,-301,811,-29,225.6569,53.2639,32.4080,1,0
0000992827,2,0.5145,-0.0457,-0.8256,0.2271,-1590,457,157,-2035,455,1059,-477,906,83,228.9538,55.9763,33.5352,1,0
0000992848,2,0.5316,-0.0298,-0.8121,0.2389,-1584,474,83,-1975,515,999,-595,972,176,232.6085,58.1219,34.9200,1,0
0000992869,2,0.5487,-0.0128,-0.7965,0.2535,-1567,504,6,-1955,519,891,-661,1016,267,237.2032,60.1911,36.9103,1,0
0000992890,2,0.5654,0.0036,-0.7790,0.2709,-1539,559,-67,-1967,387,879,-715,1032,424,242.9204,61.9985,39.8371,1,0
0000992911,2,0.5811,0.0196,-0.7596,0.2916,-1496,633,-124,-1867,291,891,-794,1031,510,249.7842,63.4056,43.6472,1,0
0000992932,2,0.5971,0.0408,-0.7331,0.3230,-1496,633,-124,-1987,347,935,-1002,971,652,259.5671,64.4094,48.9755,1,0
0000992953,2,0.6054,0.0595,-0.7103,0.3540,-1440,726,-149,-2015,471,919,-1235,889,766,267.8456,64.4549,52.9491,1,0
0000992974,2,0.6092,0.0796,-0.6862,0.3896,-1371,835,-135,-1883,543,935,-1410,814,866,275.9575,63.8927,56.1404,1,0
0000992995,2,0.6086,0.0993,-0.6601,0.4289,-1287,951,-81,-1707,647,1143,-1578,686,1026,283.7187,62.7142,58.5152,1,0
0000993016,2,0.6009,0.1219,-0.6253,0.4828,-1287,951,-81,-1667,923,1215,-1703,553,1144,292.3788,60.3632,59.8835,1,0
0000993037,2,0.5890,0.1374,-0.5962,0.5280,-1190,1066,15,-1651,1351,1223,-1744,404,1212,298.2595,57.9301,59.6314,1,0
0000993058,2,0.5741,0.1486,-0.5670,0.5717,-1082,1166,142,-1615,1451,1259,-1590,248,1244,303.2236,55.1837,58.6984,1,0
0000993079,2,0.5594,0.1525,-0.5394,0.6107,-961,1244,259,-1527,1503,1403,-1272,90,1272,307.2831,52.1485,57.7144,1,0
0000993100,2,0.5463,0.1487,-0.5140,0.6444,-836,1307,361,-1355,1559,1543,-915,-124,1254,310.5284,48.8783,56.9358,1,0
0000993121,2,0.5299,0.1355,-0.4868,0.6811,-836,1307,361,-1359,1411,1671,-782,-329,1218,313.2794,44.4691,55.7415,1,0
0000993142,2,0.5137,0.1204,-0.4689,0.7083,-699,1354,465,-1307,1295,1819,-760,-545,1150,314.4986,40.7162,54.2193,1,0
0000993163,2,0.4949,0.1008,-0.4551,0.7333,-558,1383,567,-1275,1251,1787,-645,-790,1076,314.8859,36.7494,52.3208,1,0
0000993184,2,0.4764,0.0753,-0.4449,0.7546,-406,1403,647,-1367,1179,1955,-422,-972,1039,314.6718,32.5145,50.6506,1,0
0000993205,2,0.4587,0.0451,-0.4373,0.7722,-406,1403,647,-1307,1079,2151,-275,-1167,929,314.0565,28.0945,49.3193,1,0
0000993226,2,0.4348,0.0030,-0.4338,0.7892,-249,1413,701,-1147,951,2231,-199,-1376,776,312.4319,22.4575,47.7008,1,0
0000993247,2,0.4140,-0.0341,-0.4365,0.7981,-97,1420,734,-751,815,2187,-107,-1554,615,310.3825,17.8699,46.5156,1,0
0000993268,2,0.3930,-0.0741,-0.4429,0.8024,44,1421,740,-471,735,2055,-15,-1674,476,307.8050,13.2551,45.6709,1,0
0000993289,2,0.3724,-0.1147,-0.4513,0.8028,173,1428,715,-151,491,2055,76,-1708,366,304.9588,8.7420,45.2090,1,0
0000993310,2,0.3528,-0.1552,-0.4617,0.7989,173,1428,715,19,255,2003,101,-1727,173,301.8082,4.4552,45.1688,1,0
0000993331,2,0.3268,-0.2025,-0.4783,0.7896,275,1433,682,59,131,1927,43,-1718,5,297.4249,-0.4077,45.2161,1,0
0000993352,2,0.3048,-0.2366,-0.4942,0.7790,346,1441,639,115,51,1739,-17,-1690,-141,293.6037,-3.8556,45.2670,1,0
0000993373,2,0.2827,-0.2686,-0.5122,0.7653,392,1450,603,175,63,1603,-80,-1674,-256,289.4836,-6.9828,45.4885,1,0
0000993394,2,0.2593,-0.2975,-0.5313,0.7496,415,1459,572,239,135,1471,-116,-1646,-363,285.2013,-9.8186,45.6705,1,0
0000993415,2,0.2370,-0.3240,-0.5515,0.7312,415,1459,572,43,-7,1327,-201,-1522,-513,280.7144,-12.2644,46.0939,1,0
0000993436,2,0.2095,-0.3479,-0.5797,0.7063,408,1472,555,-143,171,1187,-349,-1356,-714,275.0742,-14.3921,46.2295,1,0
0000993457,2,0.1898,-0.3590,-0.6059,0.6841,363,1484,571,-319,455,899,-442,-1168,-910,270.4758,-15.1401,46.0334,1,0
0000993478,2,0.1738,-0.3651,-0.6330,0.6602,282,1488,605,-339,531,839,-486,-953,-1022,265.9652,-15.1838,45.7848,1,0
0000993499,2,0.1617,-0.3648,-0.6605,0.6360,282,1488,605,-459,771,899,-519,-720,-1136,261.7614,-14.5074,45.2557,1,0
0000993520,2,0.1543,-0.3598,-0.6882,0.6109,173,1489,651,-771,1163,935,-537,-438,-1295,257.7830,-13.1357,44.5907,1,0
0000993541,2,0.1518,-0.3472,-0.7226,0.5781,34,1471,710,-963,1267,923,-507,-251,-1373,253.1222,-10.4907,43.5340,1,0
0000993562,2,0.1538,-0.3341,-0.7488,0.5514,-119,1437,767,-1035,1435,883,-501,-105,-1407,249.6369,-7.9416,42.5688,1,0
0000993583,2,0.1589,-0.3178,-0.7741,0.5239,-289,1383,822,-1035,1679,931,-512,27,-1488,246.2879,-4.9933,41.3830,1,0
0000993604,2,0.1672,-0.3001,-0.7983,0.4947,-289,1383,822,-1219,1923,835,-433,129,-1522,242.9398,-1.7217,40.1571,1,0
0000993625,2,0.1787,-0.2838,-0.8187,0.4661,-464,1310,854,-1279,1919,691,-213,293,-1409,239.8811,1.6112,39.1592,1,0
0000993646,2,0.2006,-0.2664,-0.8379,0.4321,-629,1243,849,-1319,1919,799,-12,476,-1363,236.6872,6.0772,38.5543,1,0
0000993667,2,0.2238,-0.2541,-0.8495,0.4046,-798,1169,811,-1631,1855,855,122,618,-1385,234.4596,10.0605,38.4903,1,0
0000993688,2,0.2495,-0.2423,-0.8579,0.3781,-798,1169,811,-1903,1535,875,148,696,-1241,232.5511,14.1752,38.5675,1,0
0000993709,2,0.2748,-0.2296,-0.8626,0.3572,-948,1093,753,-2127,1439,763,49,789,-994,231.3513,18.0617,38.5532,1,0
0000993730,2,0.2995,-0.2130,-0.8646,0.3425,-1069,1019,696,-2163,1523,635,-181,978,-825,230.8529,21.8410,38.1643,1,0
0000993751,2,0.3331,-0.1858,-0.8639,0.3291,-1177,937,629,-2223,1407,695,-298,1153,-769,230.9565,26.9452,37.3035,1,0
0000993772,2,0.3621,-0.1601,-0.8603,0.3210,-1278,851,545,-2207,1403,739,-371,1298,-728,231.4981,31.3455,36.4999,1,0
0000993793,2,0.3932,-0.1339,-0.8535,0.3145,-1278,851,545,-2171,1535,751,-317,1411,-615,232.4942,35.9476,36.0061,1,0
0000993814,2,0.4262,-0.1103,-0.8423,0.3109,-1358,784,433,-2211,1579,739,-244,1507,-431,234.3358,40.4989,36.3621,1,0
0000993835,2,0.4594,-0.0875,-0.8277,0.3101,-1412,741,302,-2251,1451,667,-293,1578,-314,236.9980,44.9332,37.3820,1,0
0000993856,2,0.5002,-0.0576,-0.8059,0.3113,-1447,710,169,-2279,1323,651,-368,1609,-260,241.3501,50.3970,39.3595,1,0
0000993877,2,0.5316,-0.0324,-0.7857,0.3148,-1457,694,38,-2255,1075,711,-446,1648,-150,245.9071,54.5734,41.7095,1,0
0000993898,2,0.5614,-0.0066,-0.7622,0.3221,-1457,694,38,-2107,1067,627,-599,1653,-15,251.9891,58.3896,45.1694,1,0
0000993919,2,0.5875,0.0215,-0.7366,0.3343,-1444,702,-78,-2143,1083,627,-826,1605,103,259.5590,61.6265,49.4778,1,0
0000993940,2,0.6088,0.0513,-0.7093,0.3517,-1410,740,-161,-1963,1347,607,-1099,1491,255,268.4980,64.1126,54.4989,1,0
0000993961,2,0.6282,0.0891,-0.6733,0.3797,-1361,799,-208,-1643,1543,399,-1229,1367,366,280.9861,65.9998,61.3691,1,0
0000993982,2,0.6387,0.1172,-0.6438,0.4047,-1361,799,-208,-1495,1571,359,-1252,1223,450,291.1197,66.5332,66.8381,1,0
0000994003,2,0.6455,0.1417,-0.6151,0.4299,-1306,871,-227,-1395,1571,391,-1198,1047,509,300.4169,66.3479,71.6336,1,0
0000994024,2,0.6490,0.1612,-0.5883,0.4546,-1248,947,-216,-1391,1387,463,-1099,841,568,308.1664,65.5340,75.2437,1,0
0000994045,2,0.6496,0.1759,-0.5637,0.4789,-1186,1023,-183,-1403,1239,603,-1044,591,618,314.1754,64.2667,77.4617,1,0
0000994066,2,0.6453,0.1895,-0.5366,0.5095,-1129,1096,-126,-1299,1119,755,-1016,399,617,319.3640,62.3495,78.1614,1,0
0000994087,2,0.6386,0.1969,-0.5182,0.5338,-1129,1096,-126,-1211,1071,819,-990,217,613,321.9373,60.6963,77.3833,1,0
0000994108,2,0.6289,0.2016,-0.5022,0.5582,-1072,1157,-46,-1195,1043,947,-991,45,613,323.4432,58.9552,75.6687,1,0
0000994129,2,0.6161,0.2037,-0.4887,0.5832,-1017,1211,55,-1255,1091,1007,-1007,-118,611,324.0249,57.1139,73.1068,1,0
0000994150,2,0.6008,0.2034,-0.4770,0.6084,-957,1252,171,-1423,1087,1127,-989,-298,603,323.9788,55.1498,70.0084,1,0
0000994171,2,0.5790,0.1993,-0.4653,0.6392,-892,1281,296,-1515,1099,1291,-948,-420,590,323.2463,52.5279,65.7239,1,0
0000994192,2,0.5594,0.1932,-0.4582,0.6631,-892,1281,296,-1451,1211,1439,-926,-566,570,322.2319,50.2625,62.0688,1,0
0000994213,2,0.5379,0.1839,-0.4535,0.6864,-821,1297,426,-1411,1415,1491,-871,-737,551,320.8139,47.7611,58.2632,1,0
0000994234,2,0.5159,0.1704,-0.4514,0.7079,-736,1305,548,-1391,1439,1555,-724,-874,538,319.0846,44.9804,54.6042,1,0
0000994255,2,0.4953,0.1527,-0.4511,0.7266,-640,1315,648,-1263,1383,1763,-510,-985,531,317.3001,41.9661,51.5140,1,0
0000994276,2,0.4713,0.1259,-0.4525,0.7465,-640,1315,648,-1055,1411,1915,-393,-1063,517,315.0897,37.9127,48.3711,1,0
0000994297,2,0.4524,0.1012,-0.4554,0.7601,-531,1320,731,-947,1391,1995,-300,-1165,482,313.2280,34.4634,46.2425,1,0
0000994318,2,0.4332,0.0742,-0.4599,0.7716,-415,1328,794,-759,1323,2067,-251,-1251,434,311.2417,30.8601,44.3625,1,0
0000994339,2,0.4131,0.0459,-0.4657,0.7812,-295,1332,847,-511,1267,2083,-211,-1305,382,309.1676,27.1613,42.6412,1,0
0000994360,2,0.3935,0.0162,-0.4725,0.7884,-173,1335,872,-319,1179,2119,-86,-1368,320,307.0495,23.4135,41.2617,1,0
0000994381,2,0.3703,-0.0240,-0.4827,0.7933,-173,1335,872,-239,911,2331,25,-1441,255,304.2125,18.6302,40.1191,1,0
0000994402,2,0.3516,-0.0583,-0.4926,0.7939,-56,1348,870,-135,747,2411,69,-1541,181,301.6765,14.7009,39.5396,1,0
0000994423,2,0.3313,-0.0940,-0.5041,0.7920,57,1358,861,3,635,2099,39,-1619,113,298.8443,10.6698,39.0849,1,0
0000994444,2,0.3096,-0.1286,-0.5161,0.7882,160,1366,834,151,631,1911,39,-1594,50,295.9288,6.7039,38.6877,1,0
0000994465,2,0.2900,-0.1626,-0.5279,0.7815,160,1366,834,243,403,1983,159,-1532,-28,292.9724,2.9787,38.7435,1,0
0000994486,2,0.2675,-0.2042,-0.5423,0.7698,247,1381,790,163,179,1995,185,-1510,-87,289.1818,-1.3886,39.3113,1,0
0000994507,2,0.2494,-0.2350,-0.5539,0.7588,314,1396,736,79,71,1991,130,-1451,-143,286.0739,-4.6100,39.8516,1,0
0000994528,2,0.2313,-0.2628,-0.5659,0.7464,360,1408,692,-27,-79,1999,38,-1359,-205,282.8945,-7.5033,40.4170,1,0
0000994549,2,0.2122,-0.2857,-0.5786,0.7338,386,1419,665,-139,-183,2047,-91,-1248,-292,279.7680,-10.0098,40.6943,1,0
0000994570,2,0.1932,-0.3054,-0.5923,0.7201,386,1419,665,-239,-175,2079,-212,-1151,-350,276.5673,-12.1848,40.9010,1,0
0000994591,2,0.1680,-0.3224,-0.6109,0.7033,392,1421,655,-343,-95,2119,-348,-1040,-420,272.7110,-14.3747,40.5858,1,0
0000994612,2,0.1477,-0.3301,-0.6272,0.6898,384,1421,673,-431,-63,2159,-480,-913,-493,269.7163,-15.6724,39.9160,1,0
0000994633,2,0.1283,-0.3334,-0.6454,0.6752,355,1408,716,-511,123,2115,-627,-773,-596,266.6915,-16.5398,39.0192,1,0
0000994654,2,0.1093,-0.3301,-0.6658,0.6601,299,1388,782,-515,427,1979,-756,-597,-761,263.7263,-16.8719,37.5992,1,0
0000994675,2,0.0932,-0.3237,-0.6879,0.6429,299,1388,782,-539,595,1951,-760,-470,-875,260.6284,-16.7339,36.1698,1,0
0000994696,2,0.0777,-0.3120,-0.7163,0.6193,224,1364,855,-655,855,1859,-688,-367,-980,256.7167,-15.9700,34.4057,1,0
0000994717,2,0.0700,-0.3021,-0.7389,0.5982,130,1334,919,-695,899,1799,-605,-261,-1070,253.4951,-14.9531,33.2868,1,0
0000994738,2,0.0664,-0.2913,-0.7617,0.5750,13,1302,977,-635,1007,1643,-567,-126,-1195,250.1582,-13.5230,32.3351,1,0
0000994759,2,0.0680,-0.2787,-0.7844,0.5499,13,1302,977,-651,895,1771,-410,82,-1295,246.7945,-11.5287,31.5066,1,0
0000994780,2,0.0754,-0.2668,-0.8053,0.5241,-125,1262,1020,-811,919,1919,-271,234,-1295,243.5839,-9.1082,31.0100,1,0
0000994801,2,0.0905,-0.2514,-0.8284,0.4923,-277,1218,1039,-1155,967,1979,-225,355,-1296,239.9095,-5.5939,30.5329,1,0
0000994822,2,0.1050,-0.2363,-0.8461,0.4661,-438,1156,1059,-1211,967,1907,-317,437,-1364,237.0432,-2.4352,29.8791,1,0
0000994843,2,0.1191,-0.2172,-0.8643,0.4377,-604,1063,1078,-951,1463,1479,-436,478,-1440,233.9510,0.8985,28.6731,1,0
0000994864,2,0.1360,-0.1988,-0.8801,0.4091,-604,1063,1078,-1079,1775,1335,-151,599,-1353,230.9388,4.4029,27.5546,1,0
0000994885,2,0.1572,-0.1866,-0.8918,0.3810,-763,978,1055,-1259,1939,1283,182,634,-1314,228.1887,7.9392,27.1894,1,0
0000994906,2,0.1869,-0.1809,-0.9026,0.3429,-910,913,998,-1179,1911,1159,402,536,-1352,224.6547,12.3218,27.7396,1,0
0000994927,2,0.2089,-0.1822,-0.9088,0.3118,-1033,855,931,-1147,1643,1199,540,450,-1191,221.8350,15.4351,28.6026,1,0
0000994948,2,0.2300,-0.1853,-0.9117,0.2857,-1033,855,931,-1559,1583,939,513,515,-973,219.6659,18.2671,29.6188,1,0
0000994969,2,0.2532,-0.1859,-0.9121,0.2634,-1133,808,857,-2087,1463,731,438,745,-914,218.0966,21.3440,30.4821,1,0
0000994990,2,0.2807,-0.1854,-0.9103,0.2415,-1235,753,763,-2407,1275,847,544,899,-965,216.8312,24.9230,31.4409,1,0
0000995011,2,0.3195,-0.1854,-0.9046,0.2125,-1339,688,643,-2763,827,1047,544,984,-946,215.4851,29.9565,32.9490,1,0
0000995032,2,0.3523,-0.1815,-0.8974,0.1938,-1426,622,517,-3047,651,1167,282,1165,-778,215.1125,34.1946,33.9843,1,0
0000995053,2,0.3856,-0.1680,-0.8883,0.1845,-1426,622,517,-2419,759,907,-227,1327,-586,215.7808,38.5355,34.2959,1,0
0000995074,2,0.4177,-0.1445,-0.8780,0.1839,-1490,557,403,-1787,1075,603,-605,1386,-433,217.2431,42.8661,33.7620,1,0
0000995095,2,0.4483,-0.1184,-0.8657,0.1888,-1533,508,287,-1651,1259,571,-617,1434,-234,219.4165,47.0143,33.2839,1,0
0000995116,2,0.4873,-0.0925,-0.8457,0.1968,-1555,493,155,-1935,1255,591,-355,1475,-95,223.3815,51.9835,34.4321,1,0
0000995137,2,0.5201,-0.0797,-0.8259,0.2024,-1557,498,-2,-2199,979,639,-125,1541,14,227.8930,55.7873,37.4782,1,0
0000995158,2,0.5539,-0.0704,-0.8030,0.2086,-1557,498,-2,-2351,391,807,-87,1606,133,234.0635,59.3257,42.4337,1,0
0000995179,2,0.5861,-0.0604,-0.7778,0.2185,-1531,524,-159,-2495,139,971,-359,1574,273,242.1142,62.3029,48.8894,1,0
0000995200,2,0.6205,-0.0411,-0.7454,0.2401,-1483,576,-289,-2451,203,943,-747,1510,339,254.3367,64.8687,57.7592,1,0
0000995221,2,0.6418,-0.0181,-0.7194,0.2648,-1423,651,-369,-2019,539,791,-1128,1420,380,264.9379,66.0568,64.3902,1,0
0000995242,2,0.6574,0.0088,-0.6932,0.2952,-1423,651,-369,-1671,819,647,-1366,1309,465,275.5658,66.4460,70.1939,1,0
0000995263,2,0.6684,0.0356,-0.6660,0.3292,-1352,748,-402,-1507,979,623,-1451,1198,567,285.7434,66.0280,75.1636,1,0
0000995284,2,0.6749,0.0603,-0.6384,0.3651,-1272,858,-401,-1447,1363,627,-1500,1086,663,294.7856,64.9257,78.8837,1,0
0000995305,2,0.6776,0.0893,-0.6031,0.4113,-1190,972,-367,-1363,1555,639,-1530,941,698,304.3890,62.9678,81.6910,1,0
0000995326,2,0.6757,0.1096,-0.5760,0.4468,-1109,1074,-309,-1251,1819,695,-1441,785,698,310.4373,61.2053,82.5134,1,0
0000995347,2,0.6713,0.1250,-0.5511,0.4796,-1109,1074,-309,-1239,1939,807,-1290,596,730,315.0411,59.3007,82.4048,1,0
0000995368,2,0.6648,0.1356,-0.5283,0.5104,-1034,1163,-237,-1235,1999,863,-1188,425,764,318.4501,57.2302,81.5790,1,0
0000995389,2,0.6561,0.1422,-0.5077,0.5399,-956,1241,-151,-1107,2115,947,-1070,222,770,320.8429,55.0561,80.0943,1,0
0000995410,2,0.6442,0.1441,-0.4857,0.5730,-879,1304,-67,-959,2095,1067,-862,62,775,322.6895,52.2697,77.8784,1,0
0000995431,2,0.6354,0.1394,-0.4713,0.5955,-799,1362,2,-751,1979,1295,-648,-90,786,323.3721,49.9091,76.1971,1,0
0000995452,2,0.6267,0.1299,-0.4599,0.6156,-799,1362,2,-631,1827,1487,-519,-254,792,323.4090,47.4153,74.4979,1,0
0000995473,2,0.6170,0.1167,-0.4512,0.6341,-713,1405,73,-571,1691,1595,-453,-424,772,322.8664,44.8154,72.6584,1,0
0000995494,2,0.6053,0.1005,-0.4459,0.6517,-628,1442,140,-551,1511,1687,-405,-639,723,321.7098,42.1269,70.5460,1,0
0000995515,2,0.5881,0.0764,-0.4439,0.6718,-542,1472,212,-543,1503,1679,-364,-813,666,319.5589,38.6602,67.6776,1,0
0000995536,2,0.5725,0.0538,-0.4464,0.6856,-542,1472,212,-511,1447,1647,-269,-980,593,317.2589,35.8000,65.3203,1,0
0000995557,2,0.5564,0.0284,-0.4523,0.6965,-458,1490,270,-507,1267,1687,-163,-1122,515,314.5543,32.8774,63.1539,1,0
0000995578,2,0.5396,0.0008,-0.4611,0.7044,-379,1509,315,-499,1179,1703,-116,-1248,430,311.5347,29.9172,61.1885,1,0
0000995599,2,0.5206,-0.0281,-0.4729,0.7103,-305,1517,355,-483,1051,1691,-98,-1412,320,308.1686,26.9082,59.2234,1,0
0000995620,2,0.4944,-0.0661,-0.4914,0.7139,-240,1526,386,-487,907,1667,-89,-1528,227,303.5284,23.0473,56.9069,1,0
0000995641,2,0.4712,-0.0968,-0.5089,0.7139,-240,1526,386,-519,807,1663,-79,-1606,110,299.5274,19.9578,55.1385,1,0
0000995662,2,0.4468,-0.1269,-0.5286,0.7105,-187,1530,412,-587,615,1671,-68,-1654,-20,295.3105,16.9755,53.5238,1,0
0000995683,2,0.4218,-0.1561,-0.5500,0.7037,-150,1529,435,-667,547,1655,-81,-1670,-144,290.9215,14.1430,52.1234,1,0
0000995704,2,0.3957,-0.1827,-0.5729,0.6942,-135,1528,457,-807,575,1499,-122,-1665,-323,286.4097,11.5230,50.7323,1,0
0000995725,2,0.3629,-0.2125,-0.6040,0.6770,-144,1519,487,-827,571,1383,-151,-1638,-500,280.4910,8.6647,49.1789,1,0
0000995746,2,0.3368,-0.2320,-0.6313,0.6590,-144,1519,487,-839,651,1219,-184,-1595,-711,275.5150,6.8645,47.9104,1,0
0000995767,2,0.3119,-0.2481,-0.6603,0.6366,-187,1507,524,-863,699,1063,-183,-1538,-890,270.2906,5.5116,46.7257,1,0
0000995788,2,0.2891,-0.2618,-0.6895,0.6103,-250,1489,563,-963,735,1007,-169,-1445,-1031,264.9401,4.5380,45.7300,1,0
0000995809,2,0.2687,-0.2716,-0.7188,0.5809,-337,1457,607,-1191,975,955,-161,-1291,-1226,259.5589,4.0624,44.7787,1,0
0000995830,2,0.2480,-0.2799,-0.7546,0.5392,-337,1457,607,-1387,1123,943,-114,-1156,-1348,252.7605,4.1532,43.7618,1,0
0000995851,2,0.2356,-0.2841,-0.7816,0.5029,-450,1412,648,-1503,1235,891,-47,-1031,-1431,247.3831,4.7363,43.1060,1,0
0000995872,2,0.2270,-0.2870,-0.8061,0.4651,-563,1355,683,-1767,1411,907,23,-878,-1458,242.1795,5.6789,42.6220,1,0
0000995893,2,0.2220,-0.2888,-0.8280,0.4264,-689,1287,707,-1955,1463,899,77,-731,-1507,237.1933,6.9706,42.2575,1,0
0000995914,2,0.2204,-0.2887,-0.8480,0.3859,-818,1201,733,-1987,1435,843,96,-627,-1607,232.2626,8.6854,41.8638,1,0
0000995935,2,0.2188,-0.2871,-0.8708,0.3337,-818,1201,733,-1827,1163,727,79,-618,-1552,226.0473,10.9251,41.1488,1,0
0000995956,2,0.2176,-0.2839,-0.8859,0.2954,-928,1101,763,-1783,1099,683,-9,-488,-1385,221.5182,12.5762,40.3192,1,0
0000995977,2,0.2190,-0.2777,-0.8980,0.2617,-1021,1002,788,-1827,1195,767,-50,-270,-1287,217.6426,14.3611,39.2809,1,0
0000995998,2,0.2242,-0.2709,-0.9074,0.2301,-1112,901,794,-1899,1375,711,-1,-116,-1264,214.1846,16.3909,38.3101,1,0
0000996019,2,0.2323,-0.2637,-0.9147,0.1997,-1112,901,794,-1859,1359,675,-1,47,-1181,210.9828,18.6457,37.3716,1,0
0000996040,2,0.2464,-0.2540,-0.9202,0.1675,-1197,800,790,-1799,1135,887,0,267,-1002,207.7896,21.6198,36.2716,1,0
0000996061,2,0.2625,-0.2459,-0.9211,0.1490,-1272,715,753,-1779,1063,987,-42,490,-792,206.2666,24.2292,35.6272,1,0
0000996082,2,0.2819,-0.2362,-0.9198,0.1367,-1338,643,698,-1791,1091,1059,-124,675,-632,205.5721,27.0004,35.0422,1,0
0000996103,2,0.3036,-0.2254,-0.9167,0.1291,-1400,589,625,-1895,943,1143,-172,829,-505,205.5304,29.8993,34.5467,1,0
0000996124,2,0.3280,-0.2134,-0.9116,0.1259,-1400,589,625,-2007,775,1143,-245,963,-379,206.1296,32.9721,34.2124,1,0
0000996145,2,0.3604,-0.1949,-0.9031,0.1288,-1450,545,537,-2275,855,1099,-456,1122,-211,207.8198,36.9238,33.8103,1,0
0000996166,2,0.3879,-0.1753,-0.8944,0.1373,-1492,516,441,-2379,1087,1055,-642,1245,-87,209.9806,40.2213,33.3814,1,0
0000996187,2,0.4173,-0.1537,-0.8830,0.1503,-1522,506,330,-2403,1191,1103,-710,1397,33,212.9817,43.6875,33.2855,1,0
0000996208,2,0.4482,-0.1311,-0.8684,0.1666,-1534,517,207,-2279,1099,1187,-780,1517,124,216.8619,47.2815,33.7719,1,0
0000996229,2,0.4794,-0.1062,-0.8510,0.1863,-1534,517,207,-2167,1067,1207,-967,1586,234,221.6629,50.9329,34.7646,1,0
0000996250,2,0.5157,-0.0712,-0.8260,0.2160,-1533,545,90,-2079,1079,1143,-1106,1566,322,228.9464,55.2080,36.6277,1,0
0000996271,2,0.5413,-0.0423,-0.8040,0.2425,-1512,597,-10,-1967,1199,1003,-1159,1495,402,235.7778,58.1955,38.8480,1,0
0000996292,2,0.5632,-0.0154,-0.7808,0.2702,-1474,666,-86,-1891,1179,807,-1120,1378,511,243.4218,60.5849,41.9542,1,0
0000996313,2,0.5819,0.0070,-0.7562,0.2993,-1474,666,-86,-1915,951,851,-1050,1286,687,252.0907,62.1554,46.3007,1,0
0000996334,2,0.5981,0.0261,-0.7295,0.3308,-1414,765,-145,-2023,875,927,-1106,1227,857,261.7349,62.8626,51.6394,1,0
0000996355,2,0.6138,0.0500,-0.6935,0.3739,-1335,880,-176,-2055,779,1063,-1246,1161,911,274.1583,62.7125,58.2232,1,0
0000996376,2,0.6210,0.0703,-0.6635,0.4115,-1245,1000,-164,-1979,787,1123,-1419,1057,973,283.4588,61.8605,62.3398,1,0
0000996397,2,0.6222,0.0908,-0.6327,0.4520,-1145,1118,-101,-1795,915,1135,-1578,904,1041,291.7149,60.3912,64.9296,1,0
0000996418,2,0.6170,0.1098,-0.6017,0.4951,-1145,1118,-101,-1663,1079,1207,-1698,699,1115,298.6735,58.3584,65.8784,1,0
0000996439,2,0.6049,0.1264,-0.5715,0.5399,-1033,1224,17,-1595,1311,1183,-1814,409,1158,304.1334,55.8831,65.0783,1,0
0000996460,2,0.5819,0.1415,-0.5361,0.5949,-920,1306,170,-1467,1379,1183,-1686,159,1157,309.1357,52.4059,62.3984,1,0
0000996481,2,0.5619,0.1447,-0.5112,0.6340,-798,1361,317,-1443,1371,1371,-1396,-72,1175,311.8950,49.2906,59.9559,1,0
0000996502,2,0.5419,0.1408,-0.4895,0.6685,-798,1361,317,-1327,1527,1583,-1154,-288,1134,313.7896,45.9508,57.5468,1,0
0000996523,2,0.5229,0.1298,-0.4722,0.6977,-668,1396,446,-1167,1427,1667,-838,-514,1072,314.8509,42.4437,55.3598,1,0
0000996544,2,0.5058,0.1117,-0.4592,0.7217,-533,1421,543,-1099,1223,1739,-521,-734,995,315.1796,38.7398,53.5495,1,0
0000996565,2,0.4861,0.0832,-0.4474,0.7461,-393,1437,611,-979,1023,1927,-375,-851,923,314.9551,33.9979,51.7217,1,0
0000996586,2,0.4704,0.0573,-0.4411,0.7621,-256,1451,657,-887,1051,2035,-273,-973,840,314.3325,30.1563,50.4284,1,0
0000996607,2,0.4540,0.0287,-0.4379,0.7755,-256,1451,657,-815,1019,2023,-206,-1118,758,313.2748,26.2352,49.1923,1,0
0000996628,2,0.4370,-0.0028,-0.4368,0.7863,-115,1454,689,-647,931,2031,-137,-1229,713,311.8987,22.1687,48.1315,1,0
0000996649,2,0.4194,-0.0361,-0.4373,0.7947,21,1452,696,-451,815,2031,-53,-1330,621,310.2952,18.0247,47.2435,1,0
0000996670,2,0.3980,-0.0799,-0.4403,0.8008,148,1454,685,-99,611,2127,16,-1390,543,307.9426,12.8632,46.5555,1,0
0000996691,2,0.3803,-0.1157,-0.4443,0.8029,270,1449,653,19,531,2155,41,-1454,475,305.8230,8.7513,46.2104,1,0
0000996712,2,0.3614,-0.1518,-0.4495,0.8027,270,1449,653,179,347,2223,27,-1511,407,303.4819,4.6584,45.9696,1,0
0000996733,2,0.3407,-0.1882,-0.4564,0.8002,379,1442,614,239,191,2195,-52,-1588,330,300.8387,0.5627,45.8023,1,0
0000996754,2,0.3157,-0.2230,-0.4657,0.7961,471,1431,581,227,147,2099,-221,-1674,189,297.8813,-3.4956,45.3695,1,0
0000996775,2,0.2807,-0.2645,-0.4812,0.7872,547,1419,549,219,203,1931,-322,-1705,85,293.6611,-8.4100,44.7592,1,0
0000996796,2,0.2503,-0.2953,-0.4947,0.7781,547,1419,549,215,159,1883,-360,-1712,32,290.1224,-12.2327,44.2231,1,0
0000996817,2,0.2190,-0.3242,-0.5083,0.7672,609,1410,519,175,187,1899,-414,-1686,-24,286.4951,-15.9526,43.8132,1,0
0000996838,2,0.1881,-0.3500,-0.5233,0.7538,651,1401,495,-35,183,2079,-539,-1538,-195,282.6851,-19.3186,43.5219,1,0
0000996859,2,0.1571,-0.3693,-0.5412,0.7389,665,1398,491,-175,299,1975,-691,-1470,-409,278.7784,-22.0751,42.9905,1,0
0000996880,2,0.1180,-0.3872,-0.5705,0.7146,642,1403,523,-139,487,1595,-886,-1401,-641,273.1102,-24.7565,42.2374,1,0
0000996901,2,0.0869,-0.3942,-0.5983,0.6922,642,1403,523,43,723,1227,-985,-1277,-831,268.2954,-26.2064,41.2875,1,0
0000996922,2,0.0596,-0.3971,-0.6274,0.6672,590,1407,578,79,835,1147,-959,-1086,-944,263.3923,-27.0674,40.4538,1,0
0000996943,2,0.0393,-0.3964,-0.6552,0.6419,516,1414,641,-315,983,1355,-839,-781,-1033,258.7916,-27.2131,39.8533,1,0
0000996964,2,0.0280,-0.3909,-0.6829,0.6164,405,1419,708,-583,1239,1467,-730,-411,-1275,254.5669,-26.3410,39.3716,1,0
0000996985,2,0.0240,-0.3793,-0.7202,0.5805,248,1415,785,-603,1283,1391,-718,-238,-1502,249.1733,-23.9386,38.9131,1,0
0000997006,2,0.0268,-0.3663,-0.7516,0.5479,248,1415,785,-663,1351,1183,-673,-78,-1683,244.7256,-21.1693,38.4651,1,0
0000997027,2,0.0367,-0.3514,-0.7822,0.5133,58,1395,855,-683,1331,1243,-560,167,-1795,240.4155,-17.6580,38.0472,1,0
0000997048,2,0.0537,-0.3350,-0.8102,0.4780,-163,1351,904,-875,1591,1031,-377,447,-1819,236.4626,-13.4862,37.6602,1,0
0000997069,2,0.0776,-0.3190,-0.8338,0.4438,-390,1297,908,-1079,1767,899,-118,682,-1724,233.0494,-8.8425,37.4586,1,0
0000997090,2,0.1185,-0.3042,-0.8540,0.4051,-390,1297,908,-1527,1747,811,252,930,-1616,229.8791,-2.5259,38.0333,1,0
0000997111,2,0.1603,-0.2977,-0.8629,0.3756,-615,1248,843,-2163,1131,947,544,1123,-1565,228.1344,3.0383,39.4325,1,0
0000997132,2,0.2047,-0.2916,-0.8678,0.3465,-834,1190,734,-2583,643,999,503,1165,-1514,226.8310,8.8061,40.9675,1,0
0000997153,2,0.2446,-0.2791,-0.8717,0.3200,-1021,1093,648,-2779,803,667,-20,1121,-1381,225.7960,14.3510,41.5939,1,0
0000997174,2,0.2792,-0.2563,-0.8758,0.2988,-1168,977,584,-2707,1191,387,-312,1156,-1229,225.0443,19.6237,40.8278,1,0
0000997195,2,0.3194,-0.2224,-0.8763,0.2839,-1168,977,584,-2827,1535,151,-445,1306,-837,225.2142,25.6937,39.3260,1,0
0000997216,2,0.3525,-0.1952,-0.8715,0.2797,-1275,884,502,-2707,1643,87,-456,1449,-597,226.4063,30.3418,38.5086,1,0
0000997237,2,0.3879,-0.1695,-0.8614,0.2807,-1345,826,388,-2575,1739,131,-396,1620,-375,228.6423,34.9632,38.4632,1,0
0000997258,2,0.4242,-0.1446,-0.8470,0.2859,-1389,793,258,-2483,1799,183,-460,1704,-194,231.8503,39.4860,39.1688,1,0
0000997279,2,0.4587,-0.1181,-0.8300,0.2944,-1389,793,258,-2467,1883,391,-653,1664,-108,235.8001,43.7902,40.2169,1,0
0000997300,2,0.4959,-0.0797,-0.8074,0.3096,-1406,778,146,-2387,2055,539,-859,1603,-63,241.3402,48.7134,41.3261,1,0
0000997321,2,0.5211,-0.0468,-0.7884,0.3237,-1407,771,58,-2203,2103,495,-921,1484,-28,246.1269,52.3087,42.2489,1,0
0000997342,2,0.5428,-0.0180,-0.7687,0.3379,-1396,786,-15,-2187,1751,559,-766,1354,119,251.3011,55.3138,43.8859,1,0
0000997363,2,0.5632,0.0040,-0.7475,0.3521,-1365,822,-90,-2223,1415,727,-579,1290,281,257.3002,57.6605,46.9046,1,0
0000997384,2,0.5876,0.0275,-0.7191,0.3701,-1365,822,-90,-1987,1207,963,-604,1254,332,265.9225,59.9258,52.0719,1,0
0000997405,2,0.6041,0.0470,-0.6952,0.3867,-1323,866,-153,-1819,1147,1111,-747,1222,396,273.4502,61.2012,56.5374,1,0
0000997426,2,0.6173,0.0679,-0.6697,0.4073,-1272,931,-191,-1635,1187,1247,-950,1169,496,281.4969,61.8973,60.9610,1,0
0000997447,2,0.6258,0.0896,-0.6428,0.4326,-1205,1007,-188,-1563,1311,1367,-1138,1079,615,289.5363,61.8896,64.7851,1,0
0000997468,2,0.6301,0.1108,-0.6144,0.4618,-1130,1093,-155,-1475,1403,1403,-1288,952,739,297.2649,61.2245,67.8502,1,0
0000997489,2,0.6299,0.1345,-0.5783,0.5007,-1130,1093,-155,-1259,1455,1403,-1295,821,802,305.7510,59.6810,70.2847,1,0
0000997510,2,0.6263,0.1492,-0.5503,0.5317,-1048,1180,-93,-1123,1423,1411,-1233,647,856,311.2956,57.9858,71.1862,1,0
0000997531,2,0.6198,0.1592,-0.5240,0.5621,-961,1255,-12,-947,1311,1527,-1201,425,896,315.6046,55.9389,71.1292,1,0
0000997552,2,0.6077,0.1655,-0.5008,0.5937,-873,1318,105,-835,1435,1563,-1291,156,892,318.4270,53.6260,69.6130,1,0
0000997573,2,0.5897,0.1685,-0.4812,0.6264,-873,1318,105,-723,1643,1507,-1297,-217,843,319.9186,51.1280,66.7542,1,0
0000997594,2,0.5627,0.1634,-0.4641,0.6642,-782,1358,252,-759,1647,1503,-1065,-514,796,320.0087,47.6886,62.2701,1,0
0000997615,2,0.5422,0.1508,-0.4563,0.6893,-686,1384,376,-755,1563,1647,-748,-732,756,319.1422,44.6401,58.9931,1,0
0000997636,2,0.5237,0.1318,-0.4525,0.7097,-581,1406,473,-687,1459,1847,-517,-922,704,317.7781,41.3826,56.2537,1,0
0000997657,2,0.5049,0.1078,-0.4530,0.7268,-470,1419,549,-667,1287,1915,-368,-1126,628,315.8537,37.8908,53.7274,1,0
0000997678,2,0.4854,0.0796,-0.4575,0.7407,-470,1419,549,-619,1015,1995,-263,-1316,535,313.4344,34.1979,51.3939,1,0
0000997699,2,0.4589,0.0396,-0.4683,0.7540,-358,1433,607,-503,855,2091,-167,-1514,421,309.8146,29.3125,48.6911,1,0
0000997720,2,0.4357,0.0052,-0.4796,0.7617,-242,1436,655,-399,795,2059,-163,-1634,343,306.6401,25.2040,46.7162,1,0
0000997741,2,0.4099,-0.0298,-0.4932,0.7667,-134,1437,688,-147,683,1911,-193,-1724,217,303.2395,21.0138,44.8170,1,0
0000997762,2,0.3824,-0.0644,-0.5092,0.7683,-134,1437,688,-47,511,1827,-170,-1763,78,299.6336,16.8879,43.0470,1,0
0000997783,2,0.3549,-0.0983,-0.5271,0.7659,-38,1434,710,-55,427,1779,-143,-1764,-92,295.8556,12.9235,41.6101,1,0
0000997804,2,0.3199,-0.1378,-0.5510,0.7583,35,1431,720,-59,443,1651,-176,-1725,-203,291.0123,8.2559,40.0650,1,0
0000997825,2,0.2914,-0.1659,-0.5711,0.7493,91,1426,727,-95,471,1555,-222,-1663,-325,287.0777,4.8273,38.9301,1,0
0000997846,2,0.2637,-0.1909,-0.5923,0.7370,118,1422,739,-175,487,1459,-255,-1570,-473,283.0356,1.7773,37.9603,1,0
0000997867,2,0.2369,-0.2111,-0.6151,0.7218,118,1422,739,-351,607,1383,-313,-1455,-653,278.8721,-0.7612,36.9895,1,0
0000997888,2,0.2122,-0.2265,-0.6402,0.7027,110,1415,757,-511,755,1331,-350,-1263,-921,274.4631,-2.6773,36.0744,1,0
0000997909,2,0.1869,-0.2393,-0.6736,0.6739,64,1408,782,-639,915,1239,-287,-1084,-1091,268.7361,-4.0568,35.1482,1,0
0000997930,2,0.1728,-0.2468,-0.6998,0.6477,-15,1398,798,-667,935,1203,-177,-892,-1172,264.1686,-4.4635,34.8208,1,0
0000997951,2,0.1646,-0.2520,-0.7239,0.6208,-111,1391,807,-743,839,1283,-66,-672,-1183,259.8890,-4.2798,34.8079,1,0
0000997972,2,0.1620,-0.2543,-0.7457,0.5942,-111,1391,807,-919,735,1487,-28,-429,-1205,256.0052,-3.4785,34.9437,1,0
0000997993,2,0.1637,-0.2524,-0.7665,0.5674,-229,1372,815,-1147,1031,1463,-74,-184,-1293,252.3796,-2.0304,34.9714,1,0
0000998014,2,0.1704,-0.2458,-0.7916,0.5329,-365,1340,822,-1339,1187,1251,-9,-72,-1303,248.0351,0.4461,34.7992,1,0
0000998035,2,0.1795,-0.2415,-0.8085,0.5057,-502,1303,810,-1379,1075,1183,117,46,-1233,244.8794,2.6403,34.9369,1,0
0000998056,2,0.1922,-0.2371,-0.8226,0.4798,-502,1303,810,-1375,899,1259,166,172,-1176,242.1207,5.0859,35.2260,1,0
0000998077,2,0.2061,-0.2308,-0.8348,0.4554,-634,1260,786,-1515,811,1199,93,270,-1111,239.6843,7.6980,35.3313,1,0
0000998098,2,0.2210,-0.2209,-0.8448,0.4343,-759,1204,764,-1627,731,1199,-66,498,-968,237.7267,10.4626,35.0825,1,0
0000998119,2,0.2425,-0.2009,-0.8542,0.4137,-876,1136,742,-1835,887,1151,-237,694,-880,236.1095,14.3641,34.1502,1,0
0000998140,2,0.2615,-0.1786,-0.8600,0.4002,-995,1053,718,-1975,1163,1071,-394,845,-861,235.2197,17.8660,32.8593,1,0
0000998161,2,0.2817,-0.1530,-0.8643,0.3875,-995,1053,718,-2115,1539,955,-428,948,-862,234.4167,21.6187,31.2895,1,0
0000998182,2,0.3047,-0.1277,-0.8662,0.3750,-1107,965,677,-2211,1571,895,-328,1056,-806,233.7619,25.6070,29.9112,1,0
0000998203,2,0.3305,-0.1051,-0.8646,0.3636,-1209,890,603,-2215,1415,899,-145,1180,-627,233.4753,29.6780,29.0642,1,0
0000998224,2,0.3659,-0.0815,-0.8572,0.3532,-1287,842,505,-2159,1151,983,-86,1230,-447,234.0250,34.7287,28.9738,1,0
0000998245,2,0.3935,-0.0631,-0.8483,0.3487,-1287,842,505,-2163,931,983,-196,1229,-323,235.1109,38.5766,29.2004,1,0
0000998266,2,0.4181,-0.0412,-0.8381,0.3478,-1341,808,411,-2143,879,927,-430,1219,-256,236.5236,42.2411,29.0895,1,0
0000998287,2,0.4401,-0.0144,-0.8266,0.3505,-1379,772,337,-2071,851,739,-667,1215,-197,238.2087,45.8411,28.4888,1,0
0000998308,2,0.4594,0.0148,-0.8131,0.3571,-1405,755,273,-2091,731,835,-824,1217,0,240.3494,49.2677,27.7659,1,0
0000998329,2,0.4813,0.0522,-0.7920,0.3719,-1410,759,224,-2151,987,899,-970,1207,147,244.2417,53.2501,27.4012,1,0
0000998350,2,0.4959,0.0828,-0.7728,0.3873,-1410,759,224,-2187,1075,903,-1041,1148,224,248.0530,56.1645,27.3909,1,0
0000998371,2,0.5083,0.1113,-0.7525,0.4037,-1402,775,188,-2255,951,1023,-1002,1075,317,252.3540,58.7410,27.9143,1,0
0000998392,2,0.5194,0.1372,-0.7306,0.4214,-1387,808,162,-2243,935,1159,-999,1034,416,257.4582,60.9961,29.3015,1,0
0000998413,2,0.5291,0.1614,-0.7071,0.4405,-1359,854,145,-2167,1059,1215,-1008,988,524,263.4241,62.9282,31.5022,1,0
0000998434,2,0.5399,0.1886,-0.6758,0.4651,-1325,910,131,-2051,1231,1279,-940,949,588,272.0902,64.8357,35.5517,1,0
0000998455,2,0.5487,0.2056,-0.6502,0.4836,-1325,910,131,-1943,1139,1343,-764,886,663,279.8197,65.8419,40.0362,1,0
0000998476,2,0.5587,0.2173,-0.6244,0.5008,-1279,975,116,-1907,1007,1475,-609,841,767,288.1981,66.2456,45.6872,1,0
0000998497,2,0.5685,0.2258,-0.5976,0.5183,-1218,1049,101,-1779,959,1539,-621,804,846,296.8643,66.0042,51.7837,1,0
0000998518,2,0.5758,0.2339,-0.5695,0.5380,-1148,1130,111,-1675,931,1455,-780,693,906,305.1662,65.1600,57.2030,1,0
0000998539,2,0.5794,0.2426,-0.5340,0.5660,-1148,1130,111,-1635,887,1395,-873,558,961,313.9842,63.2972,61.9991,1,0
0000998560,2,0.5773,0.2470,-0.5060,0.5914,-1064,1204,155,-1547,947,1311,-981,361,1013,319.4387,61.2024,63.9641,1,0
0000998581,2,0.5699,0.2484,-0.4794,0.6194,-968,1273,234,-1515,1043,1231,-1082,108,1030,323.3004,58.6611,64.1184,1,0
0000998602,2,0.5571,0.2457,-0.4559,0.6492,-864,1323,351,-1555,1167,1171,-1110,-165,1016,325.5381,55.7854,62.6195,1,0
0000998623,2,0.5407,0.2380,-0.4361,0.6788,-747,1355,475,-1583,1243,1271,-1007,-480,980,326.5245,52.6265,60.1576,1,0
0000998644,2,0.5183,0.2204,-0.4171,0.7133,-747,1355,475,-1527,1235,1323,-835,-689,950,326.5603,48.3178,56.6621,1,0
0000998665,2,0.5009,0.2000,-0.4063,0.7376,-622,1376,589,-1423,1123,1431,-627,-879,901,325.9221,44.5939,54.0343,1,0
0000998686,2,0.4851,0.1745,-0.3994,0.7581,-485,1392,674,-1367,1055,1615,-410,-1031,845,324.8691,40.6941,51.8314,1,0
0000998707,2,0.4703,0.1444,-0.3960,0.7753,-339,1404,728,-1275,939,1831,-239,-1190,783,323.4297,36.6160,50.0017,1,0
0000998728,2,0.4558,0.1101,-0.3960,0.7895,-191,1416,760,-1191,819,2019,-105,-1395,696,321.5972,32.3327,48.4661,1,0
0000998749,2,0.4364,0.0625,-0.3996,0.8038,-191,1416,760,-1115,727,2147,-38,-1524,655,318.8569,26.6878,46.8198,1,0
0000998770,2,0.4194,0.0218,-0.4040,0.8126,-37,1421,768,-923,603,2323,-18,-1612,612,316.4964,21.9807,45.7354,1,0
0000998791,2,0.4009,-0.0199,-0.4100,0.8190,111,1421,760,-739,599,2439,-35,-1680,516,313.9640,17.2277,44.8010,1,0
0000998812,2,0.3803,-0.0612,-0.4183,0.8226,243,1416,738,-503,591,2587,-36,-1735,388,311.1781,12.5637,43.9061,1,0
0000998833,2,0.3589,-0.1021,-0.4295,0.8224,243,1416,738,-219,611,2255,-80,-1827,166,308.0506,8.0667,43.2204,1,0
0000998854,2,0.3271,-0.1518,-0.4496,0.8172,352,1408,705,115,587,1899,-187,-1924,-38,303.3837,2.6417,42.2105,1,0
0000998875,2,0.2995,-0.1895,-0.4703,0.8082,429,1406,668,651,679,1539,-195,-1943,-252,299.0780,-1.4110,41.5021,1,0
0000998896,2,0.2734,-0.2263,-0.4937,0.7939,473,1415,618,803,719,1363,-115,-1939,-425,294.3175,-5.1225,41.3175,1,0
0000998917,2,0.2501,-0.2622,-0.5171,0.7755,491,1439,550,711,499,1323,17,-1877,-504,289.3557,-8.5125,41.7811,1,0
0000998938,2,0.2300,-0.2970,-0.5387,0.7541,491,1439,550,395,299,1351,112,-1763,-532,284.3673,-11.5492,42.8977,1,0
0000998959,2,0.2062,-0.3365,-0.5635,0.7257,488,1461,481,219,195,1407,57,-1662,-571,278.2335,-14.8286,44.5842,1,0
0000998980,2,0.1866,-0.3622,-0.5840,0.7021,466,1488,432,-7,171,1455,-94,-1558,-669,273.3233,-16.8985,45.7193,1,0
0000999001,2,0.1666,-0.3825,-0.6070,0.6764,413,1509,418,-263,351,1347,-294,-1441,-818,268.2146,-18.3665,46.6129,1,0
0000999022,2,0.1461,-0.3946,-0.6334,0.6494,413,1509,418,-367,543,1203,-518,-1251,-1044,263.0760,-19.1095,46.8800,1,0
0000999043,2,0.1280,-0.4011,-0.6621,0.6200,323,1524,446,-415,751,1019,-583,-1068,-1161,257.8753,-19.1379,46.9083,1,0
0000999064,2,0.1104,-0.4023,-0.6973,0.5829,215,1530,497,-447,879,959,-554,-864,-1202,251.8228,-18.3594,46.6118,1,0
0000999085,2,0.1018,-0.3995,-0.7235,0.5537,91,1523,551,-651,1051,1031,-512,-642,-1232,247.4709,-17.1722,46.3056,1,0
0000999106,2,0.0987,-0.3938,-0.7482,0.5247,-49,1504,607,-1003,1175,943,-460,-408,-1314,243.5129,-15.4047,45.9498,1,0
0000999127,2,0.1018,-0.3852,-0.7718,0.4955,-49,1504,607,-1119,1075,907,-383,-142,-1389,239.9341,-12.9842,45.5447,1,0
0000999148,2,0.1099,-0.3745,-0.7934,0.4671,-208,1473,655,-1183,907,1135,-338,83,-1354,236.7751,-10.1131,45.0676,1,0
0000999169,2,0.1256,-0.3571,-0.8168,0.4354,-371,1423,691,-1299,1175,1195,-359,248,-1290,233.6486,-6.0767,44.1606,1,0
0000999190,2,0.1394,-0.3411,-0.8335,0.4117,-528,1358,725,-1619,1607,879,-374,301,-1239,231.4691,-2.7740,43.1702,1,0
0000999211,2,0.1551,-0.3254,-0.8478,0.3891,-678,1282,733,-1615,1315,967,-274,423,-1199,229.5192,0.5550,42.2535,1,0
0000999232,2,0.1746,-0.3090,-0.8598,0.3671,-678,1282,733,-1603,1375,1027,-279,596,-1212,227.8286,4.2089,41.3987,1,0
0000999253,2,0.1962,-0.2904,-0.8702,0.3462,-832,1191,727,-1939,1463,883,-280,736,-1132,226.3633,8.0718,40.3724,1,0
0000999274,2,0.2275,-0.2663,-0.8786,0.3246,-971,1101,696,-2119,1439,815,-237,915,-997,225.2402,13.1131,39.2021,1,0
0000999295,2,0.2560,-0.2459,-0.8817,0.3109,-1098,1007,641,-2083,1551,959,-265,1066,-924,224.9375,17.3727,38.3931,1,0
0000999316,2,0.2838,-0.2221,-0.8836,0.2989,-1098,1007,641,-2215,1967,735,-435,1053,-892,224.7431,21.6424,37.2122,1,0
0000999337,2,0.3086,-0.1956,-0.8846,0.2896,-1209,909,594,-2359,1959,595,-566,1013,-692,224.6177,25.6409,35.6051,1,0
0000999358,2,0.3315,-0.1689,-0.8835,0.2845,-1290,823,543,-2327,1983,463,-555,1072,-569,224.8377,29.3238,33.9657,1,0
0000999379,2,0.3631,-0.1380,-0.8780,0.2796,-1359,749,466,-2307,2027,563,-388,1167,-542,225.5455,34.0878,32.5362,1,0
0000999400,2,0.3900,-0.1173,-0.8715,0.2733,-1421,683,376,-2451,2427,391,-244,1120,-576,226.0999,37.9941,32.0002,1,0
0000999421,2,0.4140,-0.0993,-0.8654,0.2643,-1421,683,376,-2115,2491,0,-139,954,-613,226.1917,41.6114,31.4952,1,0
0000999442,2,0.4346,-0.0875,-0.8597,0.2538,-1467,624,295,-1731,1815,247,174,744,-379,226.0845,44.6552,31.4404,1,0
0000999463,2,0.4534,-0.0845,-0.8522,0.2471,-1490,602,210,-1791,1451,423,179,749,-89,226.8441,46.9687,32.6429,1,0
0000999484,2,0.4760,-0.0787,-0.8400,0.2481,-1493,608,133,-1783,1195,527,-133,821,30,229.2502,49.5216,34.5787,1,0
0000999505,2,0.4926,-0.0660,-0.8290,0.2566,-1486,625,75,-1739,1219,687,-507,876,131,232.0083,51.5194,35.5944,1,0
0000999526,2,0.5065,-0.0472,-0.8169,0.2718,-1486,625,75,-1727,1467,631,-798,866,252,235.4128,53.3131,36.1564,1,0
0000999547,2,0.5177,-0.0272,-0.8039,0.2916,-1467,662,39,-1635,1555,591,-864,795,388,239.3834,54.7327,36.7576,1,0
0000999568,2,0.5268,-0.0112,-0.7901,0.3130,-1434,720,15,-1615,1567,743,-704,690,556,243.8253,55.6461,38.0082,1,0
0000999589,2,0.5366,0.0026,-0.7722,0.3404,-1392,790,-4,-1603,1395,919,-641,619,632,249.7941,56.1362,40.4213,1,0
0000999610,2,0.5427,0.0116,-0.7573,0.3631,-1392,790,-4,-1575,1303,1019,-659,577,685,254.6732,56.1361,42.5115,1,0
0000999631,2,0.5471,0.0211,-0.7416,0.3875,-1340,868,-6,-1499,1251,1147,-756,564,735,259.6318,55.8847,44.4423,1,0
0000999652,2,0.5497,0.0322,-0.7248,0.4141,-1280,947,7,-1395,1351,1159,-907,546,784,264.6678,55.4331,46.0670,1,0
0000999673,2,0.5490,0.0473,-0.7028,0.4500,-1215,1028,39,-1271,1387,1039,-989,454,826,270.7635,54.5128,47.4326,1,0
0000999694,2,0.5448,0.0582,-0.6854,0.4797,-1140,1103,100,-1215,1403,971,-1011,341,850,275.1652,53.3816,47.9315,1,0
0000999715,2,0.5380,0.0673,-0.6687,0.5088,-1140,1103,100,-1155,1451,959,-970,228,852,279.0394,51.9940,47.9953,1,0
0000999736,2,0.5297,0.0735,-0.6530,0.5363,-1066,1168,167,-1107,1471,1015,-868,110,828,282.3459,50.4138,47.7975,1,0
0000999757,2,0.5201,0.0757,-0.6394,0.5612,-987,1223,241,-1119,1431,1143,-716,-92,800,284.9727,48.5989,47.4143,1,0
0000999778,2,0.5051,0.0732,-0.6258,0.5898,-904,1270,319,-1235,1515,1299,-656,-271,771,287.2400,45.9369,46.4703,1,0
0000999799,2,0.4900,0.0671,-0.6176,0.6115,-904,1270,319,-1099,1315,1367,-621,-472,757,288.2990,43.4220,45.3095,1,0
0000999820,2,0.4707,0.0579,-0.6119,0.6330,-816,1308,409,-991,1335,1407,-655,-681,744,288.7467,40.4935,43.6536,1,0
0000999841,2,0.4482,0.0457,-0.6082,0.6535,-716,1330,512,-887,1427,1467,-589,-843,714,288.7504,37.2291,41.7482,1,0
0000999862,2,0.4257,0.0291,-0.6060,0.6713,-604,1351,597,-851,1399,1587,-409,-956,695,288.4830,33.7100,40.1392,1,0
0000999883,2,0.3987,0.0018,-0.6043,0.6898,-482,1376,659,-719,1231,1859,-217,-1093,708,287.9507,28.9688,38.7726,1,0
0000999904,2,0.3761,-0.0244,-0.6033,0.7029,-482,1376,659,-415,1183,1963,-178,-1229,711,287.3680,24.8007,37.9468,1,0
0000999925,2,0.3506,-0.0529,-0.6033,0.7144,-344,1391,710,-291,1179,1923,-196,-1369,663,286.5069,20.3352,37.0269,1,0
0000999946,2,0.3229,-0.0828,-0.6045,0.7235,-204,1400,751,-63,1083,1999,-173,-1460,596,285.3812,15.7039,36.1090,1,0
0000999967,2,0.2951,-0.1145,-0.6065,0.7293,-63,1406,767,231,943,2099,-23,-1529,515,284.0378,11.0105,35.4534,1,0
0000999988,2,0.2630,-0.1572,-0.6084,0.7321,70,1416,752,291,783,2175,98,-1528,482,282.1912,5.1547,35.3533,1,0
0001000009,2,0.2383,-0.1915,-0.6094,0.7315,70,1416,752,319,479,2199,117,-1525,407,280.5994,0.5884,35.6029,1,0
0001000030,2,0.2127,-0.2245,-0.6119,0.7280,192,1425,723,363,319,2107,56,-1566,268,278.6721,-3.8150,35.8573,1,0
0001000051,2,0.1858,-0.2558,-0.6170,0.7207,288,1426,693,459,183,1791,-36,-1577,113,276.2495,-8.0147,36.1005,1,0
0001000072,2,0.1584,-0.2835,-0.6239,0.7109,356,1427,667,571,67,1619,-88,-1489,-47,273.5623,-11.8567,36.2719,1,0
0001000093,2,0.1273,-0.3149,-0.6341,0.6946,356,1427,667,587,-35,1591,-86,-1397,-170,269.8450,-16.0271,36.8371,1,0
0001000114,2,0.1043,-0.3361,-0.6434,0.6798,399,1433,640,467,-207,1675,-131,-1296,-283,266.7300,-18.8332,37.3581,1,0
0001000135,2,0.0819,-0.3523,-0.6548,0.6636,414,1438,625,347,-255,1707,-282,-1178,-404,263.4883,-21.1213,37.6747,1,0
0001000156,2,0.0606,-0.3635,-0.6692,0.6453,401,1441,642,127,-91,1767,-455,-1036,-546,260.0126,-22.8336,37.7838,1,0
0001000177,2,0.0403,-0.3677,-0.6865,0.6260,361,1436,684,-115,247,1755,-599,-838,-725,256.5340,-23.8989,37.4022,1,0
0001000198,2,0.0200,-0.3679,-0.7108,0.5992,361,1436,684,-271,387,1711,-623,-649,-846,252.0254,-24.3583,36.9065,1,0
0001000219,2,0.0095,-0.3627,-0.7312,0.5777,291,1425,740,-455,443,1807,-612,-393,-944,248.6805,-23.8949,36.3071,1,0
0001000240,2,0.0051,-0.3534,-0.7525,0.5558,192,1411,803,-535,615,1831,-605,-158,-1061,245.5392,-22.6479,35.6227,1,0
0001000261,2,0.0061,-0.3415,-0.7744,0.5326,64,1382,870,-619,807,1707,-601,33,-1164,242.4365,-20.7545,34.9327,1,0
0001000282,2,0.0122,-0.3260,-0.7962,0.5096,-88,1342,929,-819,959,1743,-573,341,-1204,239.6234,-18.2314,34.0222,1,0
0001000303,2,0.0288,-0.3031,-0.8215,0.4822,-88,1342,929,-975,1111,1771,-482,594,-1224,236.6268,-14.1807,32.8371,1,0
0001000324,2,0.0491,-0.2839,-0.8394,0.4609,-260,1287,967,-1283,1327,1635,-349,755,-1237,234.5686,-10.3315,32.0342,1,0
0001000345,2,0.0738,-0.2657,-0.8549,0.4395,-442,1230,973,-1391,1343,1543,-234,876,-1230,232.6793,-6.1578,31.4741,1,0
0001000366,2,0.1018,-0.2474,-0.8677,0.4190,-622,1166,948,-1395,1363,1363,-175,1021,-1179,231.0620,-1.7539,30.9897,1,0
0001000387,2,0.1348,-0.2284,-0.8771,0.4004,-622,1166,948,-1655,1259,1351,-68,1302,-1092,229.9063,3.0672,30.6211,1,0
0001000408,2,0.1832,-0.2026,-0.8843,0.3786,-807,1096,889,-1907,1267,1275,-66,1505,-1114,229.0180,9.8179,30.2969,1,0
0001000429,2,0.2248,-0.1785,-0.8875,0.3606,-993,1008,795,-2227,1279,1103,-145,1577,-1109,228.4271,15.6768,29.8246,1,0
0001000450,2,0.2652,-0.1520,-0.8873,0.3453,-1149,915,693,-2295,1251,1087,-251,1604,-920,228.1606,21.4472,29.1217,1,0
0001000471,2,0.3029,-0.1228,-0.8834,0.3357,-1267,831,590,-2223,1419,831,-450,1633,-699,228.4755,26.9203,28.1243,1,0
0001000492,2,0.3391,-0.0900,-0.8759,0.3314,-1267,831,590,-2383,1527,719,-600,1688,-530,229.3698,32.2954,26.8958,1,0
0001000513,2,0.3828,-0.0474,-0.8619,0.3292,-1355,760,477,-2311,1679,627,-623,1717,-448,230.9308,38.9465,25.4137,1,0
0001000534,2,0.4170,-0.0164,-0.8477,0.3275,-1421,704,355,-1971,1479,655,-462,1654,-338,232.4202,44.1257,24.7798,1,0
0001000555,2,0.4502,0.0071,-0.8309,0.3270,-1453,685,219,-1915,1383,875,-264,1570,-116,234.6608,48.8323,25.4288,1,0
0001000576,2,0.4810,0.0261,-0.8120,0.3295,-1457,695,99,-2147,1451,939,-287,1483,46,237.8823,52.9789,27.1338,1,0
0001000597,2,0.5090,0.0449,-0.7916,0.3351,-1457,695,99,-2263,1255,1091,-389,1432,141,242.0464,56.7208,29.4722,1,0
0001000618,2,0.5418,0.0684,-0.7627,0.3465,-1441,720,-10,-2307,927,1247,-485,1459,330,249.1722,60.9099,33.8892,1,0
0001000639,2,0.5666,0.0878,-0.7356,0.3608,-1404,774,-111,-2427,943,1315,-679,1481,480,257.2373,63.7501,39.2248,1,0
0001000660,2,0.5875,0.1097,-0.7061,0.3798,-1349,844,-175,-2619,1287,1267,-901,1414,546,267.0194,65.9241,45.5705,1,0
0001000681,2,0.6030,0.1319,-0.6767,0.4014,-1349,844,-175,-2391,1475,1047,-991,1194,582,277.3428,67.2090,52.0992,1,0
0001000702,2,0.6123,0.1504,-0.6498,0.4245,-1285,921,-196,-1879,1471,943,-967,859,652,286.6994,67.4417,57.7191,1,0
0001000723,2,0.6188,0.1672,-0.6193,0.4535,-1221,1002,-187,-1587,1599,899,-859,692,704,296.5291,66.6355,63.2728,1,0
0001000744,2,0.6233,0.1743,-0.5965,0.4747,-1149,1081,-176,-1355,1499,1011,-635,593,768,303.1067,65.3741,67.0766,1,0
0001000765,2,0.6285,0.1756,-0.5749,0.4937,-1071,1158,-167,-1231,1259,1079,-479,486,840,308.6457,63.6308,70.4796,1,0
0001000786,2,0.6320,0.1734,-0.5546,0.5128,-1071,1158,-167,-1159,1127,1103,-487,322,875,312.8811,61.5014,72.8004,1,0
0001000807,2,0.6309,0.1697,-0.5363,0.5344,-984,1234,-129,-1175,999,1219,-716,107,901,315.6392,59.0940,73.4371,1,0
0001000828,2,0.6207,0.1664,-0.5145,0.5677,-896,1308,-49,-1179,1231,1219,-979,-45,893,317.7208,55.8569,71.9407,1,0
0001000849,2,0.6068,0.1638,-0.4985,0.5970,-806,1366,63,-1219,1499,1235,-1029,-175,884,318.5656,53.1827,69.4867,1,0
0001000870,2,0.5908,0.1583,-0.4843,0.6255,-806,1366,63,-995,1411,1279,-970,-326,871,318.9379,50.3855,66.7517,1,0
0001000891,2,0.5720,0.1499,-0.4731,0.6531,-710,1410,183,-883,1467,1255,-976,-538,814,318.6547,47.4811,63.5794,1,0
0001000912,2,0.5494,0.1386,-0.4660,0.6796,-615,1434,311,-739,1699,1163,-901,-793,698,317.6289,44.4523,59.9044,1,0
0001000933,2,0.5204,0.1189,-0.4633,0.7074,-523,1442,425,-611,1639,1263,-663,-962,597,315.5808,40.5753,55.5145,1,0
0001000954,2,0.4999,0.0973,-0.4655,0.7239,-428,1452,498,-611,1539,1403,-373,-1091,531,313.5298,37.3152,52.7626,1,0
0001000975,2,0.4822,0.0711,-0.4704,0.7356,-428,1452,498,-567,1379,1603,-152,-1192,466,311.2776,33.9387,50.7567,1,0
0001000996,2,0.4656,0.0419,-0.4780,0.7436,-333,1463,541,-531,1143,1691,-22,-1300,384,308.7636,30.4998,49.2156,1,0
0001001017,2,0.4488,0.0107,-0.4877,0.7487,-242,1472,560,-443,795,1835,31,-1397,290,306.0176,26.9864,47.9369,1,0
0001001038,2,0.4254,-0.0289,-0.5026,0.7520,-159,1480,575,-403,735,1827,-9,-1477,188,302.2822,22.5948,46.4258,1,0
0001001059,2,0.4031,-0.0599,-0.5170,0.7527,-87,1482,595,-431,679,1767,-89,-1556,91,298.9989,19.0642,45.0411,1,0
0001001080,2,0.3778,-0.0898,-0.5330,0.7517,-87,1482,595,-327,623,1663,-165,-1594,5,295.5642,15.5323,43.5463,1,0
0001001101,2,0.3512,-0.1184,-0.5502,0.7483,-25,1476,616,-235,603,1599,-203,-1599,-97,292.0203,12.0789,42.1171,1,0
0001001122,2,0.3237,-0.1451,-0.5683,0.7424,24,1471,635,-203,551,1563,-204,-1578,-224,288.3938,8.7729,40.7840,1,0
0001001143,2,0.2901,-0.1763,-0.5925,0.7306,52,1465,651,-291,663,1435,-215,-1540,-363,283.6888,4.9374,39.4282,1,0
0001001164,2,0.2640,-0.1981,-0.6136,0.7173,52,1465,651,-295,691,1311,-201,-1478,-534,279.7004,2.2812,38.4925,1,0
0001001185,2,0.2405,-0.2176,-0.6358,0.7004,54,1464,664,-259,643,1203,-157,-1377,-664,275.5555,0.0552,37.8463,1,0
0001001206,2,0.2201,-0.2345,-0.6579,0.6810,32,1461,674,-291,699,1131,-131,-1236,-765,271.3985,-1.7065,37.4841,1,0
0001001227,2,0.2031,-0.2477,-0.6798,0.6597,-17,1455,683,-407,779,1083,-107,-1070,-871,267.2972,-2.9037,37.2690,1,0
0001001248,2,0.1878,-0.2595,-0.7075,0.6299,-95,1451,696,-511,883,1055,-76,-855,-1047,262.1772,-3.5102,37.2288,1,0
0001001269,2,0.1802,-0.2652,-0.7303,0.6033,-95,1451,696,-603,883,1047,-52,-710,-1173,258.0188,-3.2588,37.2776,1,0
0001001290,2,0.1763,-0.2681,-0.7525,0.5752,-199,1434,708,-855,1043,1031,-32,-547,-1233,253.9484,-2.4678,37.3577,1,0
0001001311,2,0.1759,-0.2681,-0.7735,0.5468,-320,1408,721,-1067,1139,959,-31,-370,-1267,250.1030,-1.2094,37.3882,1,0
0001001332,2,0.1798,-0.2651,-0.7934,0.5177,-459,1366,725,-1263,1079,923,0,-187,-1338,246.4589,0.6261,37.3605,1,0
0001001353,2,0.1905,-0.2590,-0.8156,0.4811,-603,1312,719,-1583,903,1059,57,17,-1309,242.2649,3.5269,37.3676,1,0
0001001374,2,0.2015,-0.2510,-0.8307,0.4542,-603,1312,719,-1791,999,971,-46,153,-1233,239.3982,6.1324,37.1192,1,0
0001001395,2,0.2132,-0.2377,-0.8446,0.4298,-739,1242,719,-2035,1243,751,-224,304,-1202,236.8901,8.9675,36.3026,1,0
0001001416,2,0.2258,-0.2189,-0.8581,0.4060,-878,1142,729,-2047,1559,503,-406,436,-1266,234.4510,12.1067,34.8677,1,0
0001001437,2,0.2394,-0.1963,-0.8705,0.3827,-1008,1032,729,-2043,1603,487,-452,520,-1197,232.0700,15.4549,33.0017,1,0
0001001458,2,0.2582,-0.1656,-0.8812,0.3596,-1008,1032,729,-2243,2071,287,-505,709,-973,229.7901,19.6300,30.4712,1,0
0001001479,2,0.2769,-0.1409,-0.8856,0.3451,-1119,927,713,-2423,2299,219,-410,872,-855,228.5713,23.1573,28.6403,1,0
0001001500,2,0.3001,-0.1200,-0.8867,0.3308,-1221,839,653,-2535,2343,219,-164,974,-826,227.6114,26.9164,27.4744,1,0
0001001521,2,0.3250,-0.1041,-0.8855,0.3152,-1309,768,569,-2219,1807,363,37,956,-707,226.6970,30.6660,26.9095,1,0
0001001542,2,0.3496,-0.0918,-0.8819,0.3028,-1368,721,483,-2247,1627,463,23,942,-528,226.2762,34.1214,26.8222,1,0
0001001563,2,0.3779,-0.0747,-0.8743,0.2953,-1368,721,483,-2287,1587,479,-183,990,-318,226.6936,38.0699,26.7106,1,0
0001001584,2,0.4004,-0.0577,-0.8659,0.2941,-1410,687,401,-2139,1535,547,-319,1052,-218,227.6519,41.2659,26.5072,1,0
0001001605,2,0.4226,-0.0391,-0.8557,0.2961,-1439,669,321,-1991,1411,643,-401,1085,-113,229.1108,44.4381,26.3720,1,0
0001001626,2,0.4441,-0.0205,-0.8437,0.3008,-1451,668,239,-1987,1195,683,-412,1099,34,231.0877,47.4854,26.5246,1,0
0001001647,2,0.4655,-0.0036,-0.8298,0.3079,-1451,668,239,-2003,1047,739,-399,1076,149,233.7523,50.3758,27.3104,1,0
0001001668,2,0.4899,0.0155,-0.8108,0.3199,-1453,689,159,-1975,739,895,-442,1030,265,237.9474,53.5441,29.0321,1,0
0001001689,2,0.5075,0.0306,-0.7938,0.3338,-1435,728,92,-2007,511,1091,-576,1012,414,242.2824,55.6984,30.9945,1,0
0001001710,2,0.5228,0.0481,-0.7744,0.3531,-1402,789,45,-2071,483,1351,-821,1040,554,247.6666,57.5291,33.2964,1,0
0001001731,2,0.5356,0.0702,-0.7521,0.3776,-1357,863,25,-2043,679,1351,-1136,1072,629,254.0171,59.1601,35.6640,1,0
0001001752,2,0.5458,0.0953,-0.7273,0.4050,-1357,863,25,-2051,743,1355,-1220,1082,671,261.0667,60.5939,38.1600,1,0
0001001773,2,0.5573,0.1266,-0.6924,0.4405,-1301,940,21,-2039,835,1475,-1215,1125,756,271.1133,62.0382,42.2977,1,0
0001001794,2,0.5661,0.1500,-0.6616,0.4683,-1237,1023,23,-1987,947,1531,-1184,1134,811,280.0371,62.8172,46.5735,1,0
0001001815,2,0.5733,0.1717,-0.6295,0.4955,-1167,1102,38,-1787,1067,1423,-1163,1052,822,289.1701,63.1212,51.1350,1,0
0001001836,2,0.5777,0.1904,-0.5981,0.5218,-1092,1179,75,-1575,867,1403,-1119,874,859,297.6718,62.8404,55.2646,1,0
0001001857,2,0.5783,0.2063,-0.5674,0.5487,-1092,1179,75,-1447,911,1311,-1186,745,876,305.2014,61.9665,58.4343,1,0
0001001878,2,0.5722,0.2237,-0.5299,0.5846,-1011,1247,148,-1395,1131,1203,-1284,525,897,312.9298,60.2251,60.4156,1,0
0001001899,2,0.5631,0.2338,-0.5023,0.6131,-926,1298,243,-1371,1303,1147,-1201,325,874,317.5988,58.4769,60.6328,1,0
0001001920,2,0.5528,0.2378,-0.4786,0.6394,-839,1342,339,-1375,1255,1151,-999,73,860,320.8417,56.4258,60.0815,1,0
0001001941,2,0.5416,0.2351,-0.4595,0.6635,-839,1342,339,-1427,1247,1223,-818,-230,825,322.7658,54.0702,58.9348,1,0
