Time(ms),Interval,Qx,Qy,Qz,Qw,Mx,My,Mz,Ax,Ay,Az,Rx,Ry,Rz,H1,P1,R1,H2,P2,R2,CalStable,MagTransient
0000979744,1,0.8019,0.3351,-0.2527,0.4252,-785,1313,-991,-1487,1075,-1035,0,10,0,26.4718,43.6445,134.8955,1,0
0000979765,1,0.8020,0.3353,-0.2525,0.4250,-785,1313,-991,-1459,1031,-1043,2,10,-7,26.5159,43.6321,134.9352,1,0
0000979786,1,0.8019,0.3357,-0.2524,0.4250,-782,1316,-994,-1439,1023,-1059,-10,8,-14,26.5841,43.6415,134.9639,1,0
0000979807,1,0.8016,0.3362,-0.2523,0.4252,-783,1314,-990,-1451,1067,-1055,-20,1,-12,26.6387,43.6633,134.9471,1,0
0000979828,1,0.8013,0.3365,-0.2523,0.4256,-785,1316,-991,-1467,1099,-1043,-11,-3,-4,26.6575,43.6881,134.9019,1,0
0000979849,1,0.8011,0.3365,-0.2523,0.4257,-787,1313,-991,-1463,1075,-1047,1,1,1,26.6587,43.6959,134.8812,1,0
0000979870,1,0.8012,0.3366,-0.2522,0.4256,-786,1315,-989,-1439,1051,-1055,1,7,1,26.6725,43.6796,134.8999,1,0
0000979891,1,0.8012,0.3366,-0.2521,0.4256,-786,1315,-989,-1423,1051,-1063,-5,3,0,26.6886,43.6703,134.9001,1,0
0000979912,1,0.8011,0.3367,-0.2519,0.4258,-787,1315,-988,-1427,1075,-1055,-11,1,4,26.6902,43.6602,134.8714,1,0
0000979933,1,0.8011,0.3366,-0.2517,0.4262,-781,1316,-989,-1451,1079,-1051,-10,-2,15,26.6557,43.6411,134.8053,1,0
0000979954,1,0.8012,0.3361,-0.2513,0.4266,-784,1316,-987,-1435,1063,-1055,-3,3,22,26.5878,43.5885,134.7259,1,0
0000979975,1,0.8014,0.3357,-0.2509,0.4268,-780,1319,-988,-1435,1051,-1051,-1,5,23,26.5333,43.5291,134.6829,1,0
0000979996,1,0.8015,0.3354,-0.2506,0.4270,-781,1321,-986,-1423,1031,-1047,-7,3,18,26.4877,43.4757,134.6327,1,0
0000980017,1,0.8015,0.3352,-0.2503,0.4273,-781,1321,-986,-1423,1023,-1055,-13,0,7,26.4524,43.4497,134.5744,1,0
0000980038,1,0.8013,0.3353,-0.2503,0.4276,-777,1319,-984,-1403,1003,-1059,-14,-2,-8,26.4579,43.4606,134.5347,1,0
0000980059,1,0.8008,0.3359,-0.2505,0.4279,-782,1322,-984,-1415,999,-1047,-21,-6,-29,26.5034,43.5207,134.5076,1,0
0000980080,1,0.7997,0.3375,-0.2512,0.4283,-787,1319,-981,-1387,987,-1035,-36,-15,-78,26.6759,43.7030,134.5128,1,0
0000980101,1,0.7981,0.3396,-0.2527,0.4288,-796,1319,-974,-1411,995,-1019,-43,-40,-117,26.8905,43.9943,134.5323,1,0
0000980122,1,0.7967,0.3405,-0.2559,0.4288,-813,1311,-968,-1427,1023,-991,-43,-60,-147,26.8861,44.4067,134.5706,1,0
0000980143,1,0.7942,0.3435,-0.2590,0.4292,-813,1311,-968,-1423,1043,-967,-42,-91,-186,27.1638,44.9269,134.6368,1,0
0000980164,1,0.7920,0.3449,-0.2640,0.4291,-834,1305,-951,-1443,1071,-951,-38,-116,-203,27.1777,45.5729,134.7017,1,0
0000980185,1,0.7890,0.3465,-0.2713,0.4287,-859,1295,-946,-1483,1107,-903,0,-149,-198,27.1526,46.4901,134.8067,1,0
0000980206,1,0.7864,0.3484,-0.2771,0.4283,-882,1283,-938,-1555,1131,-863,45,-167,-180,27.2329,47.2430,134.9439,1,0
0000980227,1,0.7852,0.3476,-0.2841,0.4265,-907,1267,-937,-1511,1147,-847,82,-165,-152,26.9513,47.9548,135.1505,1,0
0000980248,1,0.7838,0.3477,-0.2899,0.4251,-927,1259,-933,-1443,1083,-871,107,-172,-112,26.8358,48.6022,135.3460,1,0
0000980269,1,0.7836,0.3451,-0.2968,0.4229,-927,1259,-933,-1475,1027,-883,124,-185,-89,26.3188,49.1973,135.5008,1,0
0000980290,1,0.7827,0.3424,-0.3050,0.4208,-948,1243,-932,-1483,1023,-847,166,-231,-62,25.7404,49.9683,135.6333,1,0
0000980311,1,0.7828,0.3376,-0.3137,0.4181,-967,1233,-931,-1515,1039,-815,188,-274,-66,24.8309,50.6615,135.6808,1,0
0000980332,1,0.7828,0.3321,-0.3234,0.4151,-992,1213,-929,-1635,1035,-835,222,-302,-63,23.7981,51.4424,135.7216,1,0
0000980353,1,0.7827,0.3275,-0.3326,0.4118,-1013,1196,-935,-1675,1031,-767,299,-298,-45,22.9245,52.2153,135.8487,1,0
0000980374,1,0.7839,0.3207,-0.3429,0.4064,-1037,1170,-937,-1595,1075,-747,326,-289,-71,21.8385,52.9560,136.1700,1,0
0000980395,1,0.7840,0.3152,-0.3551,0.3999,-1037,1170,-937,-1543,1055,-743,329,-292,-94,20.9481,53.9837,136.7059,1,0
0000980416,1,0.7847,0.3088,-0.3660,0.3936,-1065,1146,-943,-1499,1027,-727,353,-306,-91,19.9551,54.8385,137.1514,1,0
0000980437,1,0.7857,0.3013,-0.3778,0.3863,-1089,1117,-949,-1515,975,-651,432,-339,-67,18.8064,55.7320,137.6475,1,0
0000980458,1,0.7865,0.2937,-0.3896,0.3786,-1116,1086,-960,-1559,939,-635,509,-372,-38,17.6741,56.6352,138.1688,1,0
0000980479,1,0.7883,0.2826,-0.4031,0.3691,-1142,1050,-965,-1695,879,-639,581,-416,-4,16.0190,57.5755,138.6574,1,0
0000980500,1,0.7905,0.2673,-0.4202,0.3565,-1172,1015,-981,-1723,859,-591,603,-417,21,13.7036,58.7542,139.1893,1,0
0000980521,1,0.7915,0.2561,-0.4329,0.3472,-1172,1015,-981,-1679,887,-607,592,-418,23,11.9704,59.6677,139.5154,1,0
0000980542,1,0.7926,0.2431,-0.4463,0.3370,-1197,983,-981,-1655,843,-599,573,-421,17,9.9227,60.6025,139.7384,1,0
0000980563,1,0.7926,0.2318,-0.4588,0.3279,-1227,947,-988,-1715,795,-623,583,-447,35,8.0243,61.5614,139.8337,1,0
0000980584,1,0.7931,0.2168,-0.4725,0.3172,-1252,914,-986,-1827,711,-563,657,-467,82,5.4849,62.5154,139.7342,1,0
0000980605,1,0.7944,0.1958,-0.4888,0.3027,-1281,882,-993,-1851,687,-547,715,-451,146,1.9480,63.5317,139.4833,1,0
0000980626,1,0.7945,0.1799,-0.5008,0.2925,-1302,855,-987,-1899,663,-535,667,-467,146,359.0540,64.3006,138.9834,1,0
0000980647,1,0.7940,0.1633,-0.5132,0.2819,-1302,855,-987,-1987,579,-551,609,-459,120,355.9034,65.1014,138.2885,1,0
0000980668,1,0.7923,0.1495,-0.5248,0.2728,-1333,823,-978,-2079,503,-503,579,-481,89,353.0262,65.9573,137.4722,1,0
0000980689,1,0.7900,0.1347,-0.5375,0.2624,-1358,797,-964,-2139,491,-403,580,-484,59,349.8342,66.9106,136.5331,1,0
0000980710,1,0.7875,0.1185,-0.5512,0.2487,-1390,760,-955,-2099,619,-295,655,-400,31,346.4803,68.0040,135.8027,1,0
0000980731,1,0.7867,0.1047,-0.5611,0.2350,-1411,723,-958,-1999,627,-439,638,-321,-10,344.1487,68.7666,135.8511,1,0
0000980752,1,0.7863,0.0927,-0.5694,0.2212,-1436,683,-959,-1971,483,-467,599,-266,-42,342.4077,69.4596,136.3385,1,0
0000980773,1,0.7857,0.0834,-0.5761,0.2092,-1436,683,-959,-2011,247,-479,561,-236,-34,341.1640,70.0936,136.9138,1,0
0000980794,1,0.7854,0.0720,-0.5825,0.1963,-1455,648,-964,-2143,119,-527,574,-205,9,339.6017,70.6271,137.4079,1,0
0000980815,1,0.7852,0.0594,-0.5886,0.1827,-1469,619,-966,-2255,-111,-607,518,-182,36,337.9018,71.1094,137.9080,1,0
0000980836,1,0.7847,0.0485,-0.5932,0.1734,-1482,599,-964,-2239,-327,-731,394,-179,84,336.0342,71.3979,137.7343,1,0
0000980857,1,0.7830,0.0387,-0.5977,0.1676,-1492,594,-951,-2159,-351,-743,254,-216,127,333.6662,71.6321,136.6781,1,0
0000980878,1,0.7801,0.0320,-0.6022,0.1667,-1503,601,-932,-2091,-207,-703,111,-243,149,331.0632,71.8464,134.7028,1,0
0000980899,1,0.7766,0.0249,-0.6069,0.1668,-1503,601,-932,-2071,-143,-671,15,-231,175,327.9863,72.0024,132.2124,1,0
0000980920,1,0.7722,0.0192,-0.6116,0.1711,-1512,618,-905,-2095,-147,-647,-46,-215,193,324.4159,72.0191,128.7565,1,0
0000980941,1,0.7684,0.0136,-0.6155,0.1745,-1519,637,-881,-2127,-91,-679,-99,-213,200,321.2827,71.9431,125.8026,1,0
0000980962,1,0.7643,0.0086,-0.6196,0.1785,-1520,661,-850,-2135,-75,-615,-127,-223,192,318.1416,71.8377,122.7410,1,0
0000980983,1,0.7598,0.0065,-0.6233,0.1848,-1524,684,-819,-2123,7,-571,-176,-230,170,315.3258,71.7297,119.5781,1,0
0000981004,1,0.7551,0.0036,-0.6276,0.1896,-1524,708,-784,-2147,119,-451,-190,-227,147,312.3762,71.6503,116.4668,1,0
0000981025,1,0.7495,0.0011,-0.6325,0.1957,-1524,708,-784,-2147,183,-303,-182,-199,128,309.1156,71.5202,112.9122,1,0
0000981046,1,0.7453,0.0009,-0.6356,0.2013,-1529,726,-751,-2111,199,-231,-180,-178,113,307.0362,71.4034,110.3816,1,0
0000981067,1,0.7415,-0.0005,-0.6388,0.2053,-1526,745,-722,-1995,235,-155,-186,-154,100,304.9712,71.2799,108.0977,1,0
0000981088,1,0.7380,0.0002,-0.6410,0.2107,-1528,759,-696,-1983,307,-63,-203,-131,89,303.4462,71.1322,106.0544,1,0
0000981109,1,0.7348,-0.0001,-0.6433,0.2149,-1521,776,-672,-2075,383,-19,-216,-90,88,301.9234,70.9775,104.1988,1,0
0000981130,1,0.7323,0.0015,-0.6442,0.2207,-1518,792,-655,-2155,559,-15,-220,-57,81,301.0557,70.7692,102.7135,1,0
0000981151,1,0.7295,0.0027,-0.6456,0.2260,-1518,792,-655,-2255,735,-7,-203,-54,43,300.0329,70.5813,101.1410,1,0
0000981172,1,0.7276,0.0053,-0.6464,0.2295,-1509,802,-634,-2267,843,-11,-154,-35,-16,299.6239,70.5837,100.2237,1,0
0000981193,1,0.7264,0.0085,-0.6471,0.2311,-1513,801,-623,-2131,839,-103,-117,-16,-77,299.5055,70.7647,99.7167,1,0
0000981214,1,0.7254,0.0119,-0.6481,0.2316,-1512,796,-612,-2035,899,-139,-77,-25,-92,299.4250,71.0510,99.3191,1,0
0000981235,1,0.7249,0.0143,-0.6488,0.2310,-1515,789,-613,-2023,939,-107,10,39,-62,299.4824,71.3044,99.2347,1,0
0000981256,1,0.7270,0.0149,-0.6471,0.2292,-1515,789,-613,-1975,855,-115,60,120,-11,300.5283,71.3860,100.3801,1,0
0000981277,1,0.7300,0.0141,-0.6441,0.2281,-1505,784,-627,-2015,783,-139,84,161,44,301.8543,71.2277,101.8644,1,0
0000981298,1,0.7338,0.0122,-0.6401,0.2271,-1495,787,-649,-1991,859,-243,111,199,59,303.4336,70.9172,103.6747,1,0
0000981319,1,0.7378,0.0108,-0.6361,0.2256,-1480,786,-671,-1979,887,-359,81,182,12,305.1062,70.6515,105.5752,1,0
0000981340,1,0.7413,0.0113,-0.6323,0.2247,-1467,789,-689,-1911,987,-371,-44,215,-23,306.7890,70.4851,107.2915,1,0
0000981361,1,0.7452,0.0161,-0.6269,0.2266,-1456,790,-703,-1779,1011,-427,-161,228,-44,309.3515,70.3335,109.2898,1,0
0000981382,1,0.7481,0.0212,-0.6224,0.2294,-1456,790,-703,-1703,947,-383,-176,243,-40,311.4810,70.1938,110.7623,1,0
0000981403,1,0.7514,0.0260,-0.6172,0.2321,-1442,796,-717,-1651,811,-379,-156,271,-11,313.7387,69.9717,112.3829,1,0
0000981424,1,0.7550,0.0298,-0.6114,0.2353,-1427,805,-735,-1695,623,-387,-162,276,33,315.9327,69.5787,113.9699,1,0
0000981445,1,0.7582,0.0342,-0.6052,0.2399,-1409,820,-749,-1723,643,-411,-276,289,27,317.9987,69.1074,115.2668,1,0
0000981466,1,0.7612,0.0433,-0.5975,0.2483,-1393,834,-756,-1703,739,-423,-411,280,-30,320.7209,68.6216,116.4939,1,0
0000981487,1,0.7623,0.0541,-0.5917,0.2567,-1380,854,-751,-1563,855,-387,-518,272,-91,323.0236,68.4209,117.1683,1,0
0000981508,1,0.7623,0.0674,-0.5863,0.2658,-1380,854,-751,-1575,935,-259,-596,263,-144,325.4559,68.3836,117.6976,1,0
0000981529,1,0.7615,0.0826,-0.5807,0.2757,-1370,870,-740,-1707,983,-127,-667,280,-177,328.0710,68.4399,118.1758,1,0
0000981550,1,0.7605,0.0993,-0.5742,0.2864,-1360,890,-731,-1795,1123,-47,-719,325,-174,330.9999,68.4791,118.7602,1,0
0000981571,1,0.7591,0.1203,-0.5650,0.3002,-1353,906,-716,-1703,1139,-43,-711,326,-163,334.7908,68.4279,119.5559,1,0
0000981592,1,0.7573,0.1366,-0.5576,0.3112,-1346,928,-704,-1731,1087,-51,-721,302,-159,337.6482,68.3789,120.0303,1,0
0000981613,1,0.7548,0.1530,-0.5501,0.3228,-1337,950,-686,-1767,1019,-27,-747,290,-137,340.3503,68.3202,120.2884,1,0
0000981634,1,0.7522,0.1682,-0.5421,0.3347,-1337,950,-686,-1775,979,-55,-716,293,-84,342.8300,68.1498,120.3654,1,0
0000981655,1,0.7502,0.1812,-0.5334,0.3461,-1327,975,-669,-1803,1031,-59,-610,306,4,345.0722,67.7916,120.4020,1,0
0000981676,1,0.7495,0.1934,-0.5220,0.3583,-1307,1002,-660,-1915,1031,-187,-466,307,63,347.5191,67.0777,120.6038,1,0
0000981697,1,0.7500,0.2001,-0.5135,0.3656,-1293,1025,-660,-1959,1011,-315,-350,272,65,349.1441,66.4464,120.9055,1,0
0000981718,1,0.7506,0.2054,-0.5069,0.3707,-1280,1042,-659,-1951,903,-391,-251,204,27,350.4613,65.9650,121.2374,1,0
0000981739,1,0.7510,0.2096,-0.5024,0.3737,-1272,1048,-662,-1815,823,-435,-164,154,-11,351.5244,65.6803,121.6106,1,0
0000981760,1,0.7511,0.2134,-0.4995,0.3752,-1272,1048,-662,-1739,727,-535,-110,83,-51,352.4514,65.5762,122.0436,1,0
0000981781,1,0.7503,0.2166,-0.4984,0.3764,-1271,1050,-657,-1751,627,-571,-65,1,-40,353.0063,65.6426,122.2065,1,0
0000981802,1,0.7496,0.2176,-0.4988,0.3767,-1273,1047,-655,-1763,607,-443,-16,-12,-35,353.0693,65.7543,122.1587,1,0
0000981823,1,0.7493,0.2185,-0.4992,0.3763,-1275,1047,-654,-1691,591,-431,-9,5,-45,353.2225,65.8631,122.2714,1,0
0000981844,1,0.7490,0.2198,-0.4994,0.3758,-1278,1040,-658,-1811,575,-443,-7,15,-53,353.5081,65.9750,122.4985,1,0
0000981865,1,0.7490,0.2211,-0.4996,0.3747,-1280,1036,-659,-2151,647,-427,27,29,-73,353.8783,66.0949,122.8563,1,0
0000981886,1,0.7495,0.2234,-0.5000,0.3718,-1280,1036,-659,-2239,663,-411,50,64,-121,354.7397,66.3096,123.7971,1,0
0000981907,1,0.7502,0.2269,-0.5000,0.3685,-1284,1023,-671,-2243,627,-395,20,107,-171,355.9691,66.5432,125.0336,1,0
0000981928,1,0.7509,0.2321,-0.4988,0.3652,-1289,1013,-684,-2203,603,-411,-11,172,-180,357.6996,66.7375,126.6091,1,0
0000981949,1,0.7526,0.2377,-0.4960,0.3620,-1290,997,-705,-2115,607,-451,-15,245,-153,359.8112,66.7381,128.4941,1,0
0000981970,1,0.7556,0.2433,-0.4912,0.3587,-1282,994,-734,-2075,567,-451,-15,355,-95,2.1910,66.4566,130.6464,1,0
0000981991,1,0.7611,0.2502,-0.4817,0.3551,-1263,992,-769,-2059,571,-483,-45,439,-39,5.3838,65.6394,133.4449,1,0
0000982012,1,0.7666,0.2559,-0.4716,0.3528,-1263,992,-769,-2047,603,-587,-65,516,-7,7.9884,64.6308,135.6301,1,0
0000982033,1,0.7726,0.2622,-0.4598,0.3505,-1236,996,-812,-1991,603,-643,-83,575,-12,10.6792,63.4248,137.8135,1,0
0000982054,1,0.7788,0.2697,-0.4468,0.3481,-1199,1001,-856,-1923,515,-707,-128,624,-28,13.4556,62.0814,139.9476,1,0
0000982075,1,0.7845,0.2781,-0.4322,0.3470,-1165,1011,-900,-1883,311,-763,-233,663,0,16.1400,60.5950,141.7559,1,0
0000982096,1,0.7897,0.2871,-0.4162,0.3474,-1119,1031,-933,-1859,359,-743,-276,679,20,18.5755,58.9655,143.0804,1,0
0000982117,1,0.7959,0.2986,-0.3950,0.3483,-1079,1047,-974,-1839,455,-735,-280,704,-4,21.4536,56.8072,144.4346,1,0
0000982138,1,0.8004,0.3088,-0.3781,0.3480,-1079,1047,-974,-1823,423,-851,-279,715,-50,23.8394,55.0982,145.5744,1,0
0000982159,1,0.8038,0.3197,-0.3613,0.3480,-1033,1064,-1001,-1787,395,-883,-325,685,-66,26.1526,53.4555,146.5253,1,0
0000982180,1,0.8062,0.3306,-0.3444,0.3494,-992,1083,-1028,-1731,467,-835,-402,661,-56,28.2497,51.8537,147.0801,1,0
0000982201,1,0.8077,0.3417,-0.3273,0.3518,-948,1108,-1040,-1579,711,-855,-415,659,-57,30.2147,50.2712,147.3611,1,0
0000982222,1,0.8094,0.3551,-0.3062,0.3536,-911,1126,-1060,-1399,787,-1007,-335,644,-79,32.6065,48.3163,147.7534,1,0
0000982243,1,0.8107,0.3650,-0.2906,0.3536,-870,1146,-1073,-1435,675,-1099,-286,604,-62,34.3796,46.8341,148.1373,1,0
0000982264,1,0.8123,0.3731,-0.2758,0.3534,-870,1146,-1073,-1591,719,-1099,-258,568,-10,35.8297,45.3776,148.3644,1,0
0000982285,1,0.8137,0.3803,-0.2616,0.3532,-832,1161,-1089,-1499,847,-1091,-242,527,-41,37.1132,43.9801,148.5172,1,0
0000982306,1,0.8144,0.3881,-0.2485,0.3528,-794,1177,-1100,-1295,891,-1167,-243,512,-72,38.4560,42.7276,148.6928,1,0
0000982327,1,0.8149,0.3975,-0.2331,0.3515,-765,1189,-1112,-1171,875,-1239,-178,478,-59,40.0767,41.2557,148.9742,1,0
0000982348,1,0.8160,0.4035,-0.2219,0.3495,-731,1197,-1129,-1195,867,-1267,-116,446,-22,41.1508,40.1047,149.2362,1,0
0000982369,1,0.8175,0.4081,-0.2118,0.3468,-702,1203,-1145,-1239,883,-1303,-69,406,-4,42.0319,39.0058,149.5198,1,0
0000982390,1,0.8191,0.4119,-0.2032,0.3436,-702,1203,-1145,-1163,891,-1351,-27,362,-9,42.7988,38.0206,149.8673,1,0
0000982411,1,0.8208,0.4153,-0.1958,0.3399,-678,1202,-1162,-1103,879,-1367,25,315,-6,43.4849,37.1399,150.2675,1,0
0000982432,1,0.8231,0.4185,-0.1883,0.3345,-651,1203,-1181,-1039,831,-1407,64,286,0,44.1991,36.1474,150.8679,1,0
0000982453,1,0.8252,0.4203,-0.1831,0.3298,-630,1198,-1204,-1059,807,-1487,92,258,10,44.6702,35.4136,151.3761,1,0
0000982474,1,0.8275,0.4215,-0.1792,0.3247,-610,1192,-1223,-1079,791,-1571,137,210,15,45.0350,34.7720,151.9389,1,0
0000982495,1,0.8299,0.4218,-0.1772,0.3193,-600,1177,-1248,-1083,735,-1663,180,144,15,45.2734,34.2925,152.5817,1,0
0000982516,1,0.8322,0.4215,-0.1768,0.3140,-600,1177,-1248,-1059,707,-1651,187,75,15,45.4104,33.9831,153.2320,1,0
0000982537,1,0.8347,0.4206,-0.1777,0.3081,-592,1166,-1265,-1075,735,-1655,188,40,17,45.4601,33.7610,153.9723,1,0
0000982558,1,0.8365,0.4196,-0.1792,0.3035,-591,1149,-1283,-1107,731,-1647,200,18,8,45.4619,33.6733,154.5708,1,0
0000982579,1,0.8382,0.4186,-0.1811,0.2990,-587,1136,-1297,-1091,695,-1643,193,10,4,45.4684,33.6318,155.1730,1,0
0000982600,1,0.8398,0.4175,-0.1830,0.2948,-587,1122,-1316,-1091,643,-1687,184,0,17,45.4362,33.6056,155.7261,1,0
0000982621,1,0.8415,0.4160,-0.1849,0.2910,-582,1110,-1325,-1143,623,-1675,174,-11,30,45.3359,33.5974,156.2177,1,0
0000982642,1,0.8433,0.4141,-0.1873,0.2869,-582,1110,-1325,-1195,647,-1667,145,-18,19,45.1998,33.6112,156.7469,1,0
0000982663,1,0.8442,0.4131,-0.1891,0.2843,-590,1100,-1339,-1179,679,-1687,117,-20,6,45.1371,33.6583,157.1039,1,0
0000982684,1,0.8450,0.4122,-0.1908,0.2821,-583,1093,-1344,-1167,639,-1707,111,-22,12,45.0817,33.7102,157.4090,1,0
0000982705,1,0.8461,0.4109,-0.1924,0.2798,-588,1081,-1355,-1187,635,-1687,123,-21,31,44.9661,33.7430,157.7065,1,0
0000982726,1,0.8472,0.4094,-0.1939,0.2774,-582,1074,-1361,-1195,615,-1659,115,-16,27,44.8291,33.7650,158.0081,1,0
0000982747,1,0.8484,0.4079,-0.1954,0.2750,-587,1066,-1367,-1151,575,-1655,81,-8,26,44.6975,33.7740,158.3126,1,0
0000982768,1,0.8492,0.4068,-0.1960,0.2737,-587,1066,-1367,-1155,579,-1631,52,1,35,44.5855,33.7484,158.4442,1,0
0000982789,1,0.8499,0.4060,-0.1959,0.2730,-581,1069,-1370,-1163,595,-1619,27,15,29,44.4869,33.6859,158.5015,1,0
0000982810,1,0.8503,0.4055,-0.1955,0.2725,-578,1065,-1375,-1167,587,-1651,11,18,21,44.4315,33.6072,158.5208,1,0
0000982831,1,0.8507,0.4051,-0.1952,0.2722,-574,1067,-1372,-1155,599,-1651,12,9,19,44.3852,33.5460,158.5284,1,0
0000982852,1,0.8511,0.4045,-0.1950,0.2718,-575,1063,-1375,-1159,607,-1615,18,5,17,44.3189,33.4939,158.5531,1,0
0000982873,1,0.8515,0.4041,-0.1949,0.2714,-575,1063,-1375,-1179,595,-1627,16,9,17,44.2707,33.4537,158.5818,1,0
0000982894,1,0.8518,0.4039,-0.1947,0.2711,-570,1064,-1378,-1207,615,-1607,4,11,7,44.2433,33.4112,158.5980,1,0
0000982915,1,0.8518,0.4040,-0.1944,0.2710,-573,1061,-1379,-1175,647,-1583,-9,16,-8,44.2722,33.3765,158.6026,1,0
0000982936,1,0.8516,0.4045,-0.1938,0.2711,-568,1063,-1378,-1167,651,-1599,-15,21,-9,44.3362,33.3329,158.5923,1,0
0000982957,1,0.8516,0.4049,-0.1931,0.2710,-569,1066,-1378,-1199,647,-1587,-2,26,-3,44.3990,33.2570,158.5958,1,0
0000982978,1,0.8517,0.4053,-0.1925,0.2707,-564,1066,-1382,-1203,643,-1615,-1,30,-8,44.4617,33.1818,158.6242,1,0
0000982999,1,0.8517,0.4058,-0.1920,0.2704,-564,1066,-1382,-1191,651,-1623,-1,22,-11,44.5314,33.1235,158.6556,1,0
0000983020,1,0.8517,0.4062,-0.1915,0.2701,-565,1064,-1384,-1167,651,-1611,-1,23,-12,44.6017,33.0733,158.6922,1,0
0000983041,1,0.8516,0.4067,-0.1910,0.2699,-564,1063,-1384,-1147,671,-1615,-4,25,-14,44.6795,33.0183,158.7201,1,0
0000983062,1,0.8515,0.4073,-0.1905,0.2697,-564,1065,-1380,-1103,675,-1619,-4,23,-18,44.7716,32.9677,158.7542,1,0
0000983083,1,0.8515,0.4079,-0.1900,0.2693,-562,1064,-1382,-1131,635,-1603,5,23,-6,44.8676,32.9043,158.7975,1,0
0000983104,1,0.8516,0.4080,-0.1895,0.2689,-559,1064,-1381,-1151,623,-1603,8,22,3,44.8932,32.8384,158.8352,1,0
0000983125,1,0.8518,0.4080,-0.1892,0.2686,-559,1064,-1381,-1147,615,-1603,3,17,2,44.9073,32.7809,158.8602,1,0
0000983146,1,0.8519,0.4081,-0.1888,0.2683,-557,1061,-1388,-1143,639,-1603,5,16,0,44.9270,32.7313,158.8792,1,0
0000983167,1,0.8521,0.4082,-0.1886,0.2680,-552,1063,-1384,-1147,611,-1615,10,10,1,44.9431,32.6911,158.9126,1,0
0000983188,1,0.8522,0.4082,-0.1884,0.2677,-555,1062,-1388,-1131,619,-1603,8,7,0,44.9513,32.6604,158.9512,1,0
0000983209,1,0.8523,0.4082,-0.1885,0.2674,-552,1061,-1388,-1143,615,-1615,8,3,-3,44.9650,32.6511,158.9854,1,0
0000983230,1,0.8523,0.4082,-0.1886,0.2671,-557,1060,-1391,-1163,639,-1611,14,-3,-5,44.9798,32.6597,159.0291,1,0
0000983251,1,0.8523,0.4083,-0.1890,0.2668,-557,1060,-1391,-1175,639,-1627,18,-4,-5,44.9954,32.6810,159.0863,1,0
0000983272,1,0.8524,0.4082,-0.1893,0.2664,-554,1059,-1388,-1167,623,-1627,21,-6,-2,45.0020,32.7023,159.1487,1,0
0000983293,1,0.8525,0.4081,-0.1898,0.2658,-557,1054,-1395,-1171,619,-1603,22,-1,0,45.0008,32.7237,159.2297,1,0
0000983314,1,0.8526,0.4081,-0.1900,0.2654,-553,1055,-1392,-1163,631,-1607,16,8,-4,45.0176,32.7171,159.2963,1,0
0000983335,1,0.8527,0.4083,-0.1898,0.2650,-557,1053,-1394,-1135,639,-1631,5,15,-4,45.0534,32.6848,159.3449,1,0
0000983356,1,0.8528,0.4084,-0.1894,0.2647,-552,1054,-1395,-1163,611,-1627,4,18,1,45.0810,32.6375,159.3696,1,0
0000983377,1,0.8529,0.4085,-0.1891,0.2644,-552,1054,-1395,-1171,631,-1623,4,15,-1,45.0981,32.5856,159.3925,1,0
0000983398,1,0.8529,0.4088,-0.1889,0.2640,-552,1053,-1396,-1163,615,-1623,5,11,-12,45.1500,32.5515,159.4415,1,0
0000983419,1,0.8529,0.4091,-0.1888,0.2637,-549,1051,-1398,-1143,631,-1627,7,9,-12,45.2075,32.5387,159.4892,1,0
0000983440,1,0.8529,0.4093,-0.1888,0.2633,-552,1051,-1399,-1143,607,-1627,13,7,-4,45.2443,32.5227,159.5447,1,0
0000983461,1,0.8530,0.4093,-0.1888,0.2630,-551,1048,-1403,-1147,607,-1639,9,4,-2,45.2617,32.5096,159.5874,1,0
0000983482,1,0.8530,0.4094,-0.1889,0.2628,-550,1050,-1399,-1139,599,-1635,11,1,-2,45.2755,32.5072,159.6250,1,0
0000983503,1,0.8531,0.4094,-0.1890,0.2624,-550,1050,-1399,-1151,611,-1615,6,3,-2,45.2915,32.5035,159.6686,1,0
0000983524,1,0.8531,0.4095,-0.1889,0.2623,-552,1048,-1401,-1155,611,-1635,1,5,-1,45.3058,32.4928,159.6837,1,0
0000983545,1,0.8531,0.4096,-0.1889,0.2622,-549,1051,-1401,-1151,615,-1643,3,3,0,45.3155,32.4813,159.6951,1,0
0000983566,1,0.8532,0.4096,-0.1888,0.2621,-551,1045,-1404,-1143,615,-1615,3,4,0,45.3249,32.4732,159.7109,1,0
0000983587,1,0.8531,0.4097,-0.1886,0.2621,-549,1050,-1401,-1155,639,-1615,-14,9,-2,45.3379,32.4568,159.7021,1,0
0000983608,1,0.8531,0.4099,-0.1881,0.2625,-551,1049,-1403,-1155,639,-1619,-15,14,2,45.3600,32.4169,159.6503,1,0
0000983629,1,0.8531,0.4099,-0.1876,0.2625,-551,1049,-1403,-1147,627,-1619,-3,15,9,45.3565,32.3671,159.6207,1,0
0000983650,1,0.8533,0.4098,-0.1873,0.2624,-548,1051,-1400,-1147,631,-1611,4,13,9,45.3430,32.3174,159.6221,1,0
0000983671,1,0.8535,0.4097,-0.1869,0.2622,-544,1048,-1404,-1139,631,-1611,2,15,10,45.3284,32.2686,159.6217,1,0
0000983692,1,0.8538,0.4095,-0.1865,0.2620,-541,1054,-1407,-1115,623,-1627,9,13,15,45.3056,32.2105,159.6227,1,0
0000983713,1,0.8542,0.4090,-0.1862,0.2615,-541,1048,-1406,-1119,611,-1627,19,12,19,45.2506,32.1405,159.6463,1,0
0000983734,1,0.8546,0.4086,-0.1860,0.2611,-536,1051,-1409,-1111,603,-1643,18,12,17,45.2053,32.0864,159.6805,1,0
0000983755,1,0.8549,0.4082,-0.1858,0.2607,-536,1051,-1409,-1107,587,-1675,14,9,17,45.1624,32.0366,159.7053,1,0
0000983776,1,0.8552,0.4078,-0.1857,0.2603,-537,1047,-1407,-1107,595,-1691,16,1,14,45.1148,32.0072,159.7278,1,0
0000983797,1,0.8555,0.4074,-0.1860,0.2600,-533,1049,-1413,-1099,595,-1683,23,-13,8,45.0721,32.0130,159.7634,1,0
0000983818,1,0.8557,0.4069,-0.1868,0.2596,-536,1045,-1411,-1099,611,-1667,26,-18,7,45.0105,32.0628,159.8279,1,0
0000983839,1,0.8558,0.4065,-0.1873,0.2593,-537,1044,-1413,-1111,619,-1663,19,-13,6,44.9696,32.1002,159.8708,1,0
0000983860,1,0.8560,0.4062,-0.1876,0.2591,-538,1044,-1412,-1115,603,-1671,9,-7,11,44.9268,32.1161,159.8889,1,0
0000983881,1,0.8561,0.4058,-0.1877,0.2592,-538,1044,-1412,-1131,607,-1655,0,-4,15,44.8724,32.1187,159.8699,1,0
0000983902,1,0.8563,0.4055,-0.1875,0.2593,-536,1045,-1409,-1143,611,-1651,-7,2,16,44.8193,32.1035,159.8310,1,0
0000983923,1,0.8564,0.4050,-0.1871,0.2597,-535,1045,-1409,-1127,615,-1655,-8,6,21,44.7499,32.0645,159.7594,1,0
0000983944,1,0.8568,0.4044,-0.1868,0.2598,-532,1046,-1413,-1139,607,-1635,2,6,34,44.6586,32.0167,159.7029,1,0
0000983965,1,0.8573,0.4036,-0.1864,0.2597,-529,1046,-1411,-1123,603,-1611,10,9,37,44.5421,31.9531,159.6671,1,0
0000983986,1,0.8578,0.4028,-0.1860,0.2596,-527,1044,-1413,-1127,579,-1615,8,12,36,44.4332,31.8859,159.6384,1,0
0000984007,1,0.8583,0.4020,-0.1855,0.2594,-527,1044,-1413,-1139,623,-1643,6,10,32,44.3285,31.8081,159.6052,1,0
0000984028,1,0.8587,0.4013,-0.1853,0.2593,-525,1048,-1411,-1135,631,-1639,11,2,27,44.2374,31.7618,159.5839,1,0
0000984049,1,0.8593,0.4004,-0.1853,0.2590,-522,1047,-1418,-1083,607,-1635,24,1,35,44.1129,31.7176,159.5897,1,0
0000984070,1,0.8599,0.3993,-0.1852,0.2585,-519,1047,-1416,-1079,579,-1615,27,6,48,43.9716,31.6602,159.5980,1,0
0000984091,1,0.8607,0.3981,-0.1848,0.2581,-515,1045,-1421,-1123,583,-1623,21,15,51,43.8137,31.5712,159.5879,1,0
0000984112,1,0.8614,0.3970,-0.1845,0.2577,-512,1045,-1418,-1131,623,-1687,23,1,39,43.6721,31.4906,159.5818,1,0
0000984133,1,0.8619,0.3960,-0.1846,0.2574,-512,1045,-1418,-1111,631,-1699,24,-16,35,43.5437,31.4663,159.5869,1,0
0000984154,1,0.8625,0.3946,-0.1853,0.2571,-512,1042,-1423,-1091,627,-1683,34,-30,39,43.3530,31.5037,159.5942,1,0
0000984175,1,0.8630,0.3932,-0.1862,0.2568,-511,1042,-1421,-1095,611,-1655,38,-31,45,43.1670,31.5493,159.6124,1,0
0000984196,1,0.8636,0.3917,-0.1870,0.2565,-512,1037,-1425,-1099,595,-1663,38,-33,44,42.9782,31.5933,159.6302,1,0
0000984217,1,0.8641,0.3903,-0.1879,0.2564,-513,1038,-1422,-1111,607,-1675,22,-49,40,42.7839,31.6637,159.6222,1,0
0000984238,1,0.8643,0.3889,-0.1892,0.2567,-516,1035,-1424,-1099,643,-1667,18,-63,37,42.5836,31.7857,159.5775,1,0
0000984259,1,0.8644,0.3872,-0.1915,0.2574,-516,1035,-1424,-1071,683,-1667,24,-92,31,42.3167,32.0271,159.5071,1,0
0000984280,1,0.8644,0.3856,-0.1939,0.2581,-525,1037,-1421,-1071,635,-1663,26,-111,35,42.0736,32.2906,159.4612,1,0
0000984301,1,0.8643,0.3836,-0.1966,0.2592,-533,1032,-1416,-1107,619,-1675,12,-133,49,41.7670,32.5980,159.3444,1,0
0000984322,1,0.8641,0.3813,-0.1999,0.2608,-544,1037,-1412,-1159,655,-1679,12,-166,53,41.3892,32.9785,159.1718,1,0
0000984343,1,0.8637,0.3788,-0.2040,0.2624,-560,1032,-1405,-1183,687,-1679,30,-199,42,40.9862,33.4510,159.0130,1,0
0000984364,1,0.8631,0.3755,-0.2101,0.2646,-560,1032,-1405,-1139,667,-1627,26,-228,45,40.4516,34.1479,158.8223,1,0
0000984385,1,0.8623,0.3725,-0.2155,0.2670,-580,1033,-1399,-1135,663,-1575,7,-254,54,39.9429,34.7888,158.5816,1,0
0000984406,1,0.8612,0.3694,-0.2211,0.2702,-598,1035,-1383,-1167,623,-1547,-21,-272,51,39.3951,35.4808,158.2277,1,0
0000984427,1,0.8597,0.3663,-0.2269,0.2744,-622,1040,-1369,-1215,719,-1495,-55,-304,63,38.7881,36.2365,157.7399,1,0
0000984448,1,0.8580,0.3624,-0.2333,0.2794,-643,1045,-1347,-1259,739,-1471,-45,-352,92,38.0325,37.0704,157.1140,1,0
0000984469,1,0.8559,0.3565,-0.2425,0.2856,-674,1049,-1330,-1315,695,-1459,-29,-387,101,36.8960,38.2211,156.2756,1,0
0000984490,1,0.8541,0.3511,-0.2503,0.2908,-700,1059,-1302,-1311,703,-1439,-37,-399,120,35.8650,39.1843,155.5355,1,0
0000984511,1,0.8524,0.3448,-0.2577,0.2969,-700,1059,-1302,-1375,783,-1339,-65,-404,177,34.6413,40.1019,154.5780,1,0
0000984532,1,0.8508,0.3374,-0.2645,0.3040,-722,1071,-1280,-1479,719,-1263,-95,-410,221,33.1649,40.9363,153.3640,1,0
0000984553,1,0.8488,0.3300,-0.2711,0.3118,-741,1091,-1247,-1435,655,-1283,-127,-410,206,31.6170,41.7529,151.9903,1,0
0000984574,1,0.8458,0.3210,-0.2793,0.3216,-762,1107,-1217,-1395,779,-1195,-123,-419,200,29.6746,42.7690,150.2050,1,0
0000984595,1,0.8433,0.3136,-0.2858,0.3298,-779,1128,-1180,-1467,891,-1131,-140,-422,223,28.0109,43.5458,148.6637,1,0
0000984616,1,0.8408,0.3055,-0.2918,0.3386,-779,1128,-1180,-1491,939,-1123,-153,-418,264,26.1757,44.2261,146.9240,1,0
0000984637,1,0.8386,0.2960,-0.2975,0.3473,-795,1151,-1149,-1551,999,-1183,-110,-431,318,24.1022,44.7934,145.0673,1,0
0000984658,1,0.8372,0.2847,-0.3036,0.3548,-803,1172,-1113,-1575,1071,-1083,-35,-444,354,21.7889,45.2635,143.2393,1,0
0000984679,1,0.8356,0.2691,-0.3125,0.3629,-812,1188,-1088,-1591,951,-1107,14,-495,358,18.6574,45.8494,140.9940,1,0
0000984700,1,0.8340,0.2558,-0.3208,0.3688,-821,1207,-1057,-1655,855,-1207,40,-534,351,15.9928,46.3703,139.1715,1,0
0000984721,1,0.8319,0.2424,-0.3298,0.3746,-835,1218,-1027,-1615,847,-1179,33,-557,340,13.2237,46.9234,137.2787,1,0
0000984742,1,0.8290,0.2293,-0.3395,0.3806,-835,1218,-1027,-1515,847,-1219,16,-596,311,10.3810,47.5182,135.2600,1,0
0000984763,1,0.8250,0.2163,-0.3504,0.3870,-852,1233,-989,-1507,739,-1199,-28,-665,293,7.3806,48.2093,133.0411,1,0
0000984784,1,0.8182,0.2002,-0.3643,0.3972,-873,1249,-945,-1547,787,-1175,-113,-665,315,3.3421,49.0336,129.7402,1,0
0000984805,1,0.8119,0.1874,-0.3746,0.4066,-888,1275,-886,-1543,883,-1095,-135,-666,316,359.9825,49.5267,126.7960,1,0
0000984826,1,0.8051,0.1751,-0.3845,0.4163,-902,1298,-830,-1615,959,-1059,-181,-645,318,356.5987,49.8949,123.7346,1,0
0000984847,1,0.7977,0.1634,-0.3933,0.4270,-907,1329,-768,-1683,943,-995,-227,-612,320,353.2813,50.0821,120.5432,1,0
0000984868,1,0.7901,0.1524,-0.4012,0.4377,-907,1329,-768,-1675,959,-895,-229,-584,320,350.0840,50.1119,117.3846,1,0
0000984889,1,0.7804,0.1385,-0.4101,0.4512,-911,1355,-706,-1611,871,-695,-258,-563,345,346.1689,49.9200,113.4683,1,0
0000984910,1,0.7719,0.1277,-0.4163,0.4631,-906,1386,-643,-1571,871,-571,-318,-552,353,343.1198,49.5520,110.2402,1,0
0000984931,1,0.7624,0.1181,-0.4219,0.4761,-900,1415,-568,-1631,951,-431,-389,-532,334,340.2101,49.1037,106.9213,1,0
0000984952,1,0.7523,0.1102,-0.4266,0.4898,-889,1447,-492,-1883,1195,-303,-442,-474,301,337.5979,48.5771,103.6554,1,0
0000984973,1,0.7423,0.1042,-0.4302,0.5032,-877,1476,-419,-1955,1407,-167,-432,-373,279,335.4166,48.0199,100.6462,1,0
0000984994,1,0.7335,0.0989,-0.4319,0.5154,-877,1476,-419,-1815,1579,-95,-358,-289,276,333.7040,47.3589,98.1187,1,0
0000985015,1,0.7250,0.0923,-0.4329,0.5277,-859,1497,-367,-1871,1543,-59,-280,-254,251,332.0257,46.4792,95.6861,1,0
0000985036,1,0.7194,0.0877,-0.4336,0.5356,-840,1513,-322,-1831,1495,31,-226,-212,206,330.9399,45.8673,94.1441,1,0
0000985057,1,0.7143,0.0842,-0.4341,0.5424,-831,1527,-288,-1559,1503,47,-236,-177,161,330.0697,45.3631,92.8301,1,0
0000985078,1,0.7090,0.0821,-0.4344,0.5494,-817,1542,-246,-1295,1435,79,-262,-149,153,329.3477,44.9301,91.5217,1,0
0000985099,1,0.7040,0.0800,-0.4342,0.5563,-805,1552,-214,-1263,1423,83,-242,-135,163,328.7271,44.4530,90.3133,1,0
0000985120,1,0.6987,0.0767,-0.4334,0.5640,-805,1552,-214,-1263,1355,55,-186,-118,175,328.0668,43.8057,89.0549,1,0
0000985141,1,0.6952,0.0733,-0.4322,0.5696,-787,1566,-180,-1195,1371,47,-159,-107,209,327.6119,43.1965,88.2243,1,0
0000985162,1,0.6924,0.0696,-0.4303,0.5750,-771,1575,-163,-1203,1435,-15,-141,-76,218,327.2777,42.5202,87.5481,1,0
0000985183,1,0.6900,0.0661,-0.4280,0.5800,-747,1588,-141,-1351,1471,-19,-122,-63,207,327.0359,41.8548,86.9881,1,0
0000985204,1,0.6878,0.0627,-0.4257,0.5846,-731,1596,-125,-1359,1507,-39,-106,-56,203,326.8346,41.2171,86.5006,1,0
0000985225,1,0.6856,0.0586,-0.4228,0.5897,-709,1608,-111,-1267,1563,55,-92,-46,189,326.6423,40.4524,85.9966,1,0
0000985246,1,0.6841,0.0556,-0.4207,0.5933,-709,1608,-111,-1251,1547,123,-76,-37,167,326.5242,39.9040,85.6751,1,0
0000985267,1,0.6827,0.0532,-0.4186,0.5965,-694,1612,-101,-1227,1611,215,-85,-22,153,326.4672,39.4171,85.3924,1,0
0000985288,1,0.6813,0.0510,-0.4164,0.5998,-673,1620,-88,-1155,1687,243,-78,-21,154,326.4262,38.9445,85.1065,1,0
0000985309,1,0.6803,0.0488,-0.4141,0.6028,-660,1627,-78,-1047,1731,199,-68,-11,136,326.4286,38.4829,84.8961,1,0
0000985330,1,0.6787,0.0466,-0.4120,0.6062,-648,1631,-68,-1011,1699,175,-83,-27,110,326.3855,38.0012,84.5886,1,0
0000985351,1,0.6770,0.0447,-0.4107,0.6091,-637,1636,-54,-983,1691,151,-93,-44,114,326.2735,37.6318,84.2500,1,0
0000985372,1,0.6754,0.0427,-0.4096,0.6118,-637,1636,-54,-967,1767,159,-60,-47,114,326.1391,37.2638,83.9406,1,0
0000985393,1,0.6743,0.0404,-0.4087,0.6137,-628,1637,-43,-943,1751,139,-39,-53,90,325.9860,36.9218,83.7290,1,0
0000985414,1,0.6731,0.0383,-0.4086,0.6153,-619,1646,-39,-931,1587,175,-40,-69,75,325.7746,36.6654,83.4905,1,0
0000985435,1,0.6711,0.0359,-0.4084,0.6177,-611,1644,-28,-899,1487,195,-90,-64,65,325.4920,36.3411,83.1016,1,0
0000985456,1,0.6684,0.0353,-0.4086,0.6206,-605,1651,-6,-971,1543,243,-146,-61,40,325.2813,36.1552,82.5943,1,0
0000985477,1,0.6650,0.0355,-0.4092,0.6238,-605,1649,17,-1063,1727,251,-164,-67,16,325.0441,36.0500,81.9625,1,0
0000985498,1,0.6618,0.0359,-0.4099,0.6267,-605,1649,17,-967,1703,251,-144,-52,11,324.8271,35.9814,81.3695,1,0
0000985519,1,0.6592,0.0364,-0.4102,0.6292,-600,1652,35,-803,1523,347,-128,-38,15,324.6783,35.9155,80.8785,1,0
0000985540,1,0.6556,0.0374,-0.4107,0.6326,-601,1649,51,-911,1415,483,-171,-36,-3,324.5084,35.8553,80.2220,1,0
0000985561,1,0.6516,0.0393,-0.4113,0.6362,-600,1649,75,-1111,1575,587,-226,-33,-18,324.3644,35.8784,79.4934,1,0
0000985582,1,0.6474,0.0420,-0.4119,0.6399,-607,1647,102,-1171,1739,535,-228,-10,-32,324.2704,35.9451,78.7282,1,0
0000985603,1,0.6439,0.0451,-0.4125,0.6428,-609,1648,120,-1239,1827,391,-173,7,-66,324.2340,36.1057,78.0941,1,0
0000985624,1,0.6421,0.0480,-0.4134,0.6439,-609,1648,120,-1307,1867,319,-58,37,-82,324.2468,36.3465,77.7491,1,0
0000985645,1,0.6421,0.0508,-0.4141,0.6431,-622,1642,125,-1323,1815,243,28,35,-70,324.3555,36.6694,77.7532,1,0
0000985666,1,0.6440,0.0508,-0.4146,0.6409,-626,1644,112,-1195,1567,287,135,18,-29,324.3975,36.8069,78.0727,1,0
0000985687,1,0.6471,0.0497,-0.4148,0.6378,-628,1642,92,-1151,1487,323,177,30,-20,324.4804,36.8847,78.6425,1,0
0000985708,1,0.6498,0.0493,-0.4151,0.6348,-631,1641,77,-1315,1447,311,117,23,-51,324.5558,37.0163,79.1228,1,0
0000985729,1,0.6509,0.0500,-0.4163,0.6329,-645,1636,79,-1387,1491,271,6,-8,-93,324.5389,37.2438,79.3057,1,0
0000985750,1,0.6497,0.0523,-0.4189,0.6323,-645,1636,79,-1339,1567,283,-56,-31,-101,324.3490,37.6175,79.0554,1,0
0000985771,1,0.6484,0.0540,-0.4208,0.6321,-651,1635,89,-1335,1607,251,-27,-23,-87,324.1774,37.8865,78.8067,1,0
0000985792,1,0.6482,0.0548,-0.4223,0.6312,-660,1629,87,-1331,1519,223,25,-17,-54,324.0529,38.0756,78.7512,1,0
0000985813,1,0.6486,0.0549,-0.4234,0.6301,-660,1628,83,-1279,1471,203,42,-19,-37,323.9597,38.1956,78.8057,1,0
0000985834,1,0.6487,0.0544,-0.4246,0.6292,-667,1626,82,-1219,1327,167,14,-56,-21,323.7920,38.2652,78.8058,1,0
0000985855,1,0.6475,0.0536,-0.4263,0.6294,-666,1628,90,-1215,1283,187,-33,-69,-11,323.4772,38.2811,78.5656,1,0
0000985876,1,0.6458,0.0533,-0.4276,0.6303,-666,1628,90,-1219,1267,179,-59,-74,-6,323.1992,38.2764,78.2214,1,0
0000985897,1,0.6439,0.0527,-0.4288,0.6315,-671,1627,100,-1315,1387,211,-63,-70,9,322.9198,38.2191,77.8530,1,0
0000985918,1,0.6423,0.0523,-0.4293,0.6327,-664,1627,108,-1363,1467,219,-44,-38,17,322.7402,38.1522,77.5647,1,0
0000985939,1,0.6416,0.0520,-0.4294,0.6335,-664,1629,110,-1427,1535,287,-22,-15,18,322.6719,38.0823,77.4315,1,0
0000985960,1,0.6413,0.0518,-0.4292,0.6339,-663,1629,111,-1547,1675,291,-1,0,10,322.6605,38.0435,77.3810,1,0
0000985981,1,0.6418,0.0523,-0.4293,0.6333,-668,1627,109,-1623,1651,279,27,19,-34,322.7175,38.1142,77.4680,1,0
0000986002,1,0.6424,0.0532,-0.4301,0.6321,-668,1627,109,-1439,1451,307,25,11,-76,322.7180,38.3083,77.5593,1,0
0000986023,1,0.6424,0.0552,-0.4314,0.6311,-674,1623,106,-1239,1487,371,-15,19,-94,322.7060,38.5998,77.5380,1,0
0000986044,1,0.6419,0.0577,-0.4324,0.6306,-683,1618,112,-1263,1595,331,-48,31,-89,322.7336,38.8966,77.4320,1,0
0000986065,1,0.6414,0.0601,-0.4332,0.6303,-691,1614,111,-1351,1583,275,-24,25,-75,322.7731,39.1606,77.3372,1,0
0000986086,1,0.6418,0.0617,-0.4339,0.6294,-697,1613,107,-1291,1555,275,19,27,-43,322.8330,39.3868,77.3944,1,0
0000986107,1,0.6425,0.0626,-0.4339,0.6285,-699,1611,105,-1287,1547,283,21,35,-27,322.9331,39.5064,77.5275,1,0
0000986128,1,0.6430,0.0632,-0.4337,0.6280,-699,1611,105,-1307,1495,267,13,26,-16,323.0338,39.5864,77.6389,1,0
0000986149,1,0.6435,0.0636,-0.4335,0.6277,-703,1615,101,-1287,1443,235,7,13,0,323.1030,39.6221,77.7174,1,0
0000986170,1,0.6436,0.0637,-0.4333,0.6277,-700,1613,103,-1307,1471,239,-4,7,0,323.1465,39.6280,77.7455,1,0
0000986191,1,0.6433,0.0640,-0.4335,0.6278,-701,1613,104,-1299,1419,271,-14,-5,-7,323.1370,39.6487,77.6917,1,0
0000986212,1,0.6427,0.0643,-0.4337,0.6282,-702,1610,108,-1283,1431,327,-35,-13,-10,323.0894,39.6678,77.5828,1,0
0000986233,1,0.6415,0.0649,-0.4342,0.6291,-704,1611,117,-1299,1471,335,-65,-20,-14,323.0079,39.6958,77.3520,1,0
0000986254,1,0.6401,0.0657,-0.4347,0.6301,-704,1611,117,-1323,1475,343,-69,-17,-23,322.9167,39.7417,77.0795,1,0
0000986275,1,0.6387,0.0668,-0.4354,0.6309,-709,1608,124,-1343,1471,339,-58,-12,-40,322.8269,39.8245,76.8207,1,0
0000986296,1,0.6374,0.0685,-0.4363,0.6314,-711,1606,131,-1343,1531,339,-48,5,-48,322.7539,39.9976,76.5617,1,0
0000986317,1,0.6368,0.0698,-0.4367,0.6316,-714,1602,135,-1323,1587,335,-29,14,-26,322.7681,40.1130,76.4537,1,0
0000986338,1,0.6368,0.0704,-0.4367,0.6315,-714,1605,130,-1359,1527,319,6,14,-21,322.8042,40.1775,76.4520,1,0
0000986359,1,0.6374,0.0709,-0.4370,0.6306,-714,1605,130,-1355,1459,343,34,19,-36,322.8427,40.2820,76.5589,1,0
0000986380,1,0.6381,0.0716,-0.4373,0.6297,-722,1599,126,-1323,1491,327,16,23,-33,322.8918,40.4121,76.6750,1,0
0000986401,1,0.6385,0.0726,-0.4374,0.6291,-724,1602,124,-1331,1543,327,1,21,-20,322.9713,40.5333,76.7494,1,0
0000986422,1,0.6387,0.0730,-0.4375,0.6287,-727,1598,122,-1339,1531,351,14,10,-15,323.0147,40.5911,76.8021,1,0
0000986443,1,0.6392,0.0731,-0.4378,0.6280,-727,1600,118,-1387,1459,355,32,1,-27,323.0096,40.6597,76.8800,1,0
0000986464,1,0.6395,0.0734,-0.4382,0.6273,-734,1596,118,-1379,1499,335,8,5,-24,323.0021,40.7418,76.9382,1,0
0000986485,1,0.6393,0.0739,-0.4384,0.6273,-734,1596,118,-1343,1551,315,-9,3,-5,323.0020,40.7933,76.9020,1,0
0000986506,1,0.6395,0.0740,-0.4383,0.6273,-731,1598,118,-1319,1475,295,18,11,3,323.0375,40.7989,76.9386,1,0
0000986527,1,0.6401,0.0738,-0.4380,0.6269,-732,1597,118,-1331,1451,291,25,13,5,323.0971,40.7928,77.0543,1,0
0000986548,1,0.6405,0.0736,-0.4378,0.6266,-728,1598,116,-1331,1487,315,17,5,11,323.1390,40.7750,77.1379,1,0
0000986569,1,0.6408,0.0733,-0.4375,0.6265,-732,1598,112,-1363,1531,291,12,2,15,323.1634,40.7336,77.1970,1,0
0000986590,1,0.6410,0.0729,-0.4372,0.6266,-725,1600,111,-1367,1519,283,4,0,16,323.1805,40.6842,77.2268,1,0
0000986611,1,0.6411,0.0724,-0.4369,0.6268,-725,1600,111,-1359,1463,291,6,-6,21,323.1841,40.6101,77.2459,1,0
0000986632,1,0.6411,0.0718,-0.4367,0.6270,-727,1599,111,-1335,1455,327,8,-9,21,323.1678,40.5365,77.2591,1,0
0000986653,1,0.6412,0.0714,-0.4365,0.6270,-719,1600,112,-1323,1463,315,8,-1,11,323.1644,40.4912,77.2764,1,0
0000986674,1,0.6413,0.0711,-0.4364,0.6271,-723,1601,108,-1351,1495,339,6,-2,14,323.1717,40.4541,77.3019,1,0
0000986695,1,0.6415,0.0706,-0.4361,0.6271,-718,1604,108,-1355,1495,311,14,0,18,323.1742,40.3987,77.3276,1,0
0000986716,1,0.6418,0.0701,-0.4358,0.6271,-720,1602,104,-1323,1483,307,12,2,14,323.2047,40.3415,77.3954,1,0
0000986737,1,0.6420,0.0698,-0.4356,0.6270,-720,1602,104,-1303,1491,259,14,0,9,323.2149,40.3065,77.4419,1,0
0000986758,1,0.6423,0.0695,-0.4356,0.6269,-718,1603,107,-1287,1483,251,11,-1,3,323.2147,40.2874,77.4810,1,0
0000986779,1,0.6423,0.0693,-0.4355,0.6268,-718,1603,103,-1287,1475,271,6,-2,7,323.2125,40.2742,77.4981,1,0
0000986800,1,0.6424,0.0689,-0.4354,0.6269,-715,1605,105,-1327,1499,283,4,-7,17,323.2017,40.2266,77.5142,1,0
0000986821,1,0.6425,0.0685,-0.4352,0.6269,-714,1605,101,-1351,1511,279,5,5,7,323.2082,40.1794,77.5372,1,0
0000986842,1,0.6429,0.0686,-0.4349,0.6268,-710,1606,105,-1331,1523,271,12,15,3,323.2645,40.1752,77.6040,1,0
0000986863,1,0.6432,0.0685,-0.4346,0.6266,-710,1606,105,-1319,1527,287,10,7,11,323.3159,40.1577,77.6782,1,0
0000986884,1,0.6436,0.0682,-0.4342,0.6266,-714,1603,98,-1299,1507,291,14,9,15,323.3552,40.1160,77.7401,1,0
0000986905,1,0.6440,0.0681,-0.4338,0.6265,-710,1608,99,-1287,1479,299,9,17,8,323.4232,40.0925,77.8278,1,0
0000986926,1,0.6442,0.0682,-0.4334,0.6265,-712,1605,96,-1291,1535,283,-4,13,8,323.4895,40.0787,77.8742,1,0
0000986947,1,0.6443,0.0684,-0.4328,0.6268,-707,1608,98,-1287,1535,279,-5,19,11,323.5805,40.0542,77.9054,1,0
0000986968,1,0.6446,0.0686,-0.4323,0.6269,-709,1607,93,-1291,1531,299,-1,23,11,323.6757,40.0295,77.9644,1,0
0000986989,1,0.6448,0.0688,-0.4317,0.6270,-709,1607,93,-1291,1547,287,-8,22,6,323.7729,40.0174,78.0123,1,0
0000987010,1,0.6449,0.0692,-0.4312,0.6272,-708,1608,96,-1287,1511,259,-13,22,4,323.8636,40.0169,78.0391,1,0
0000987031,1,0.6449,0.0696,-0.4307,0.6275,-709,1610,97,-1271,1535,271,-11,21,8,323.9542,40.0095,78.0632,1,0
0000987052,1,0.6452,0.0699,-0.4300,0.6276,-706,1610,96,-1275,1539,267,6,22,7,324.0728,39.9946,78.1286,1,0
0000987073,1,0.6457,0.0700,-0.4298,0.6273,-707,1610,95,-1295,1575,251,16,10,-9,324.1388,40.0029,78.2204,1,0
0000987094,1,0.6460,0.0705,-0.4305,0.6264,-713,1605,89,-1315,1479,231,29,-4,-62,324.0977,40.1270,78.2622,1,0
0000987115,1,0.6469,0.0714,-0.4316,0.6246,-713,1605,89,-1251,1335,247,75,48,-61,324.1024,40.3573,78.4299,1,0
0000987136,1,0.6490,0.0726,-0.4313,0.6225,-719,1602,79,-1215,1327,247,86,100,-42,324.3543,40.5591,78.8430,1,0
0000987157,1,0.6528,0.0759,-0.4293,0.6195,-725,1599,60,-1203,1315,159,76,192,-78,325.0838,40.8882,79.6299,1,0
0000987178,1,0.6562,0.0804,-0.4278,0.6164,-735,1596,41,-1155,1291,99,80,202,-137,325.8177,41.3412,80.3428,1,0
0000987199,1,0.6599,0.0871,-0.4260,0.6127,-756,1585,11,-1303,1255,151,169,201,-210,326.7947,41.9872,81.1941,1,0
0000987220,1,0.6653,0.0933,-0.4269,0.6053,-784,1570,-29,-1367,1251,43,246,254,-355,327.5719,42.9246,82.3686,1,0
0000987241,1,0.6713,0.1038,-0.4274,0.5966,-784,1570,-29,-1359,1167,19,287,277,-447,328.8510,44.2442,83.8140,1,0
0000987262,1,0.6790,0.1201,-0.4300,0.5829,-834,1541,-80,-1331,1111,-7,312,299,-595,330.6527,46.3741,85.9122,1,0
0000987283,1,0.6851,0.1335,-0.4360,0.5681,-889,1504,-133,-1435,1139,-87,332,300,-738,331.8583,48.5124,87.7849,1,0
0000987304,1,0.6899,0.1524,-0.4410,0.5535,-964,1448,-194,-1811,1171,-155,386,275,-842,333.8057,51.0041,89.8579,1,0
0000987325,1,0.6953,0.1671,-0.4506,0.5344,-1036,1389,-253,-2051,1207,-335,434,237,-872,335.1492,53.6264,92.2014,1,0
0000987346,1,0.6988,0.1862,-0.4568,0.5180,-1107,1320,-319,-2067,1463,-487,464,210,-859,337.4742,56.2362,94.7606,1,0
0000987367,1,0.7038,0.2063,-0.4652,0.4957,-1107,1320,-319,-2003,1703,-499,519,246,-776,340.4912,59.2427,98.5157,1,0
0000987388,1,0.7118,0.2159,-0.4702,0.4750,-1158,1255,-390,-1803,1803,-359,587,415,-553,343.3063,60.9820,102.6880,1,0
0000987409,1,0.7227,0.2242,-0.4662,0.4585,-1181,1208,-486,-1683,1327,-111,593,542,-216,347.4639,61.5618,107.7323,1,0
0000987430,1,0.7359,0.2245,-0.4596,0.4436,-1160,1192,-573,-1631,1007,-79,553,520,33,350.7800,61.1255,112.3835,1,0
0000987451,1,0.7466,0.2248,-0.4518,0.4335,-1144,1174,-641,-1559,535,-211,467,306,39,353.4843,60.4040,115.9289,1,0
0000987472,1,0.7536,0.2283,-0.4466,0.4249,-1138,1156,-680,-1767,443,-159,346,131,-96,355.9235,60.1224,118.8019,1,0
0000987493,1,0.7565,0.2307,-0.4483,0.4164,-1138,1156,-680,-1667,807,-111,215,112,-269,357.1720,60.5174,120.6879,1,0
0000987514,1,0.7553,0.2430,-0.4477,0.4124,-1158,1125,-705,-1475,1099,-167,155,67,-347,359.7349,61.2392,122.5696,1,0
0000987535,1,0.7551,0.2466,-0.4526,0.4051,-1176,1095,-715,-1427,1191,-275,223,-86,-267,0.6974,62.0558,123.9914,1,0
0000987556,1,0.7535,0.2481,-0.4587,0.4004,-1202,1065,-721,-1459,1199,-227,371,-279,-137,0.8249,62.8668,124.5313,1,0
0000987577,1,0.7520,0.2396,-0.4727,0.3921,-1224,1037,-720,-1643,1083,-27,635,-533,-25,358.6493,63.9961,124.0796,1,0
0000987598,1,0.7525,0.2224,-0.4901,0.3796,-1260,993,-730,-1887,907,115,937,-654,30,354.9186,65.0145,123.2187,1,0
0000987619,1,0.7533,0.2046,-0.5071,0.3654,-1260,993,-730,-1903,687,35,1128,-673,65,351.1758,65.9946,122.5092,1,0
0000987640,1,0.7550,0.1805,-0.5264,0.3469,-1284,945,-740,-1927,455,-91,1154,-724,87,346.3165,66.9314,121.5726,1,0
0000987661,1,0.7534,0.1606,-0.5437,0.3333,-1325,898,-742,-1939,343,-91,1059,-814,144,341.3781,67.8487,119.6889,1,0
0000987682,1,0.7482,0.1362,-0.5647,0.3205,-1357,861,-722,-2091,571,-27,967,-849,167,334.0615,68.8098,115.7044,1,0
0000987703,1,0.7436,0.1118,-0.5834,0.3068,-1397,834,-691,-2355,691,19,937,-843,136,326.8948,69.4387,111.8816,1,0
0000987724,1,0.7381,0.0927,-0.5993,0.2957,-1397,834,-691,-2399,883,-31,975,-794,96,320.5540,69.9762,108.1625,1,0
0000987745,1,0.7335,0.0699,-0.6159,0.2788,-1427,796,-664,-2419,1047,-87,991,-728,25,313.8715,70.4762,104.8909,1,0
0000987766,1,0.7297,0.0509,-0.6294,0.2623,-1462,754,-646,-2447,955,-135,1008,-598,-13,308.3705,70.9507,102.4225,1,0
0000987787,1,0.7276,0.0281,-0.6420,0.2403,-1488,708,-642,-2339,811,-155,947,-409,-7,303.0661,71.3826,100.8876,1,0
0000987808,1,0.7275,0.0102,-0.6487,0.2233,-1508,672,-646,-2195,647,-111,872,-285,33,299.9261,71.5139,100.6632,1,0
0000987829,1,0.7285,-0.0041,-0.6519,0.2102,-1515,643,-663,-2191,551,-47,761,-155,59,298.1591,71.4801,101.1803,1,0
0000987850,1,0.7309,-0.0177,-0.6529,0.1980,-1515,643,-663,-2115,339,-83,641,-32,67,297.3152,71.3336,102.4724,1,0
0000987871,1,0.7341,-0.0266,-0.6514,0.1901,-1515,624,-689,-2087,227,-107,508,41,72,297.6307,71.1230,104.1686,1,0
0000987892,1,0.7379,-0.0342,-0.6484,0.1840,-1514,610,-712,-2163,183,-31,322,81,73,298.4876,70.8005,106.1492,1,0
0000987913,1,0.7408,-0.0390,-0.6457,0.1811,-1508,605,-732,-2119,359,-83,174,119,81,299.2171,70.4847,107.5137,1,0
0000987934,1,0.7436,-0.0401,-0.6420,0.1824,-1501,608,-749,-1991,487,-183,145,117,121,300.3949,70.0774,108.6646,1,0
0000987955,1,0.7461,-0.0456,-0.6390,0.1815,-1493,615,-768,-1943,415,-159,200,100,157,300.8439,69.5500,109.6385,1,0
0000987976,1,0.7488,-0.0494,-0.6355,0.1820,-1493,615,-768,-1839,311,-83,203,108,150,301.5601,69.0067,110.6154,1,0
0000987997,1,0.7514,-0.0548,-0.6323,0.1807,-1482,616,-791,-1875,363,55,184,107,123,302.0276,68.4899,111.6370,1,0
0000988018,1,0.7543,-0.0586,-0.6287,0.1800,-1476,617,-804,-1903,355,43,167,79,75,302.7689,68.0145,112.7322,1,0
0000988039,1,0.7559,-0.0600,-0.6268,0.1790,-1474,614,-820,-1915,391,-19,143,48,17,303.3036,67.8514,113.4588,1,0
0000988060,1,0.7570,-0.0617,-0.6261,0.1764,-1474,605,-825,-1939,563,-47,112,17,-27,303.5399,67.8495,114.0549,1,0
0000988081,1,0.7577,-0.0622,-0.6260,0.1736,-1477,592,-830,-1911,671,-99,94,21,-68,303.7793,67.9837,114.5763,1,0
0000988102,1,0.7586,-0.0624,-0.6258,0.1703,-1477,592,-830,-1871,671,-127,133,12,-78,304.1896,68.1616,115.2775,1,0
0000988123,1,0.7599,-0.0620,-0.6255,0.1659,-1480,577,-834,-1831,583,-163,180,3,-82,304.8313,68.4339,116.2484,1,0
0000988144,1,0.7609,-0.0614,-0.6252,0.1626,-1487,559,-844,-1815,235,-267,143,-2,-69,305.3771,68.6513,117.0229,1,0
0000988165,1,0.7610,-0.0622,-0.6257,0.1600,-1489,549,-843,-2263,227,-347,61,-37,-32,305.3742,68.8059,117.3033,1,0
0000988186,1,0.7601,-0.0597,-0.6269,0.1605,-1498,542,-834,-2451,515,-343,-50,-81,-71,305.3242,69.0325,117.0051,1,0
0000988207,1,0.7574,-0.0547,-0.6306,0.1600,-1515,529,-805,-2291,1019,-291,-193,-209,-275,304.8974,69.6831,116.2214,1,0
0000988228,1,0.7521,-0.0420,-0.6379,0.1601,-1515,529,-805,-1843,1211,-375,-228,-212,-300,304.3268,71.1012,114.6132,1,0
0000988249,1,0.7497,-0.0358,-0.6409,0.1609,-1539,514,-781,-1767,1075,-623,-62,-45,-60,304.0798,71.7051,113.7955,1,0
0000988270,1,0.7518,-0.0386,-0.6379,0.1626,-1533,520,-791,-1811,587,-187,42,181,246,304.6050,71.1746,114.4079,1,0
0000988291,1,0.7510,-0.0435,-0.6366,0.1699,-1529,553,-783,-2199,-283,-575,-150,-147,313,303.4240,70.2836,113.0107,1,0
0000988312,1,0.7462,-0.0468,-0.6409,0.1740,-1539,563,-751,-2135,-399,-599,-19,-256,23,300.7416,70.0761,110.2688,1,0
0000988333,1,0.7392,-0.0456,-0.6485,0.1757,-1562,570,-705,-1959,75,-171,-223,-349,-24,297.6502,70.5267,106.9362,1,0
0000988354,1,0.7306,-0.0419,-0.6567,0.1823,-1562,570,-705,-1639,839,-267,-386,-421,47,294.0343,70.7812,102.4783,1,0
0000988375,1,0.7218,-0.0404,-0.6646,0.1891,-1575,590,-642,-1575,1023,-371,-184,-401,111,290.1044,70.7480,97.8644,1,0
0000988396,1,0.7158,-0.0460,-0.6702,0.1904,-1590,603,-603,-1671,1191,-375,156,-294,167,286.8744,70.3939,94.9730,1,0
0000988417,1,0.7129,-0.0539,-0.6732,0.1887,-1591,609,-589,-2047,1455,-271,239,-130,124,284.8620,69.9779,93.7488,1,0
0000988438,1,0.7127,-0.0617,-0.6736,0.1858,-1591,611,-593,-2039,1163,-67,176,6,87,284.1110,69.5867,93.8773,1,0
0000988459,1,0.7146,-0.0614,-0.6712,0.1872,-1584,617,-604,-2363,387,-467,-215,189,-2,285.0880,69.4368,94.7144,1,0
0000988480,1,0.7168,-0.0451,-0.6669,0.1987,-1584,617,-604,-2635,375,-923,-997,389,-205,287.9042,69.7282,95.2341,1,0
0000988501,1,0.7204,-0.0098,-0.6576,0.2203,-1577,637,-614,-2759,899,-1271,-1643,824,-415,293.9574,70.5774,96.5905,1,0
0000988522,1,0.7296,0.0373,-0.6367,0.2469,-1543,672,-676,-2303,1319,-1215,-1715,1497,-375,305.6649,71.3407,102.1589,1,0
0000988543,1,0.7510,0.0856,-0.5955,0.2722,-1471,715,-794,-2235,971,-699,-1016,1749,-98,324.6675,70.2210,114.9083,1,0
0000988564,1,0.7723,0.1163,-0.5549,0.2866,-1363,770,-937,-2435,351,-683,-1128,1984,-84,338.8250,67.4822,125.0524,1,0
0000988585,1,0.7896,0.1560,-0.5089,0.3052,-1240,849,-1036,-2527,-123,-527,-1537,2047,-272,351.5646,64.0162,132.4549,1,0
0000988606,1,0.7970,0.2046,-0.4635,0.3288,-1240,849,-1036,-2411,-35,-147,-1989,1806,-505,2.5106,60.8461,136.6320,1,0
0000988627,1,0.7939,0.2560,-0.4210,0.3563,-1145,945,-1049,-2267,643,91,-1956,1561,-549,11.6914,58.3053,138.2027,1,0
0000988648,1,0.7863,0.3134,-0.3692,0.3836,-1063,1038,-1047,-1747,1183,207,-1794,1563,-500,21.5534,55.1967,139.3572,1,0
0000988669,1,0.7784,0.3554,-0.3290,0.3995,-992,1111,-1035,-1151,1367,319,-1546,1448,-543,28.6738,52.7604,140.1087,1,0
0000988690,1,0.7690,0.3917,-0.2938,0.4109,-941,1171,-1017,-847,1327,347,-1294,1207,-472,34.7334,50.6945,140.6170,1,0
0000988711,1,0.7611,0.4167,-0.2669,0.4194,-907,1208,-999,-627,1599,327,-888,805,-245,38.8036,49.0959,140.5562,1,0
0000988732,1,0.7559,0.4304,-0.2505,0.4251,-907,1208,-999,-615,1535,403,-405,309,-96,40.9661,48.1185,140.2334,1,0
0000988753,1,0.7528,0.4356,-0.2445,0.4287,-893,1233,-984,-547,1255,423,-89,-27,-8,41.6910,47.8638,139.8679,1,0
0000988774,1,0.7522,0.4313,-0.2500,0.4309,-903,1233,-980,-679,1183,415,125,-394,75,40.7547,48.4041,139.3413,1,0
0000988795,1,0.7524,0.4206,-0.2633,0.4332,-932,1227,-968,-955,1203,355,336,-683,127,38.5728,49.5223,138.4715,1,0
0000988816,1,0.7537,0.4049,-0.2837,0.4331,-978,1202,-962,-1383,1127,151,602,-875,141,35.4967,51.1108,137.6403,1,0
0000988837,1,0.7566,0.3835,-0.3105,0.4291,-1044,1157,-964,-1975,1111,-119,983,-1179,191,31.4500,53.0245,136.8664,1,0
0000988858,1,0.7605,0.3473,-0.3544,0.4188,-1044,1157,-964,-2587,959,-251,1268,-1420,233,24.4997,56.0950,135.5119,1,0
0000988879,1,0.7638,0.3127,-0.3928,0.4056,-1122,1097,-960,-2747,779,-143,1444,-1391,233,17.7851,58.6221,134.1042,1,0
0000988900,1,0.7646,0.2806,-0.4308,0.3887,-1208,1020,-959,-2695,879,-315,1371,-1380,19,11.2886,61.2754,132.8024,1,0
0000988921,1,0.7608,0.2519,-0.4696,0.3704,-1308,937,-926,-2279,739,-447,1345,-1376,-99,4.6881,64.3150,131.0299,1,0
0000988942,1,0.7569,0.2221,-0.5060,0.3489,-1404,846,-900,-2571,695,-519,1602,-1282,-16,357.5039,67.0669,128.8435,1,0
0000988963,1,0.7550,0.1868,-0.5399,0.3217,-1481,758,-876,-2467,363,-251,1777,-1127,78,349.3403,69.3155,126.4605,1,0
0000988984,1,0.7537,0.1426,-0.5739,0.2868,-1481,758,-876,-2059,-43,-347,1594,-915,140,339.1893,71.2351,123.3441,1,0
0000989005,1,0.7522,0.1091,-0.5941,0.2635,-1545,689,-860,-1987,-483,-571,1387,-807,266,331.1460,72.0176,120.2102,1,0
0000989026,1,0.7492,0.0796,-0.6095,0.2468,-1588,658,-827,-2267,-667,-507,1010,-645,313,323.3787,72.2726,116.3589,1,0
0000989047,1,0.7466,0.0600,-0.6185,0.2376,-1618,645,-810,-2591,-647,-683,394,-294,148,318.0896,72.1855,113.4909,1,0
0000989068,1,0.7444,0.0534,-0.6228,0.2348,-1637,650,-798,-2503,-459,-1063,71,-147,32,315.7277,72.2345,111.9247,1,0
0000989089,1,0.7426,0.0553,-0.6244,0.2358,-1648,647,-797,-2479,-271,-1327,-92,-10,-56,315.2362,72.4442,111.1907,1,0
0000989110,1,0.7431,0.0571,-0.6242,0.2343,-1648,647,-797,-2443,-111,-1251,80,60,-104,315.8805,72.6421,111.8192,1,0
0000989131,1,0.7456,0.0586,-0.6233,0.2283,-1655,632,-811,-2335,-95,-1039,167,138,-203,317.6197,72.9868,113.9452,1,0
0000989152,1,0.7494,0.0632,-0.6209,0.2212,-1656,600,-843,-2143,-111,-883,30,286,-313,320.8522,73.4364,117.3990,1,0
0000989173,1,0.7540,0.0724,-0.6161,0.2159,-1647,573,-883,-2055,-247,-691,-140,395,-332,325.7483,73.8168,121.9867,1,0
0000989194,1,0.7609,0.0886,-0.6062,0.2139,-1629,557,-935,-2151,-283,-703,-321,530,-301,333.4579,73.8140,128.5035,1,0
0000989215,1,0.7677,0.1038,-0.5945,0.2154,-1594,558,-995,-2287,-319,-699,-392,645,-279,340.3959,73.2433,134.0279,1,0
0000989236,1,0.7749,0.1209,-0.5808,0.2182,-1594,558,-995,-2419,-259,-719,-518,701,-289,347.3999,72.3406,139.3103,1,0
0000989257,1,0.7810,0.1406,-0.5657,0.2240,-1553,565,-1057,-2471,-195,-775,-671,710,-299,353.9712,71.2064,143.6711,1,0
0000989278,1,0.7859,0.1621,-0.5497,0.2323,-1505,591,-1106,-2471,-123,-819,-806,740,-270,359.9139,69.9311,147.0051,1,0
0000989299,1,0.7917,0.1898,-0.5264,0.2451,-1450,625,-1155,-2359,7,-867,-857,811,-227,6.4725,67.9008,149.9541,1,0
0000989320,1,0.7960,0.2118,-0.5056,0.2569,-1386,678,-1198,-2283,39,-911,-920,825,-177,10.9810,66.0137,151.3738,1,0
0000989341,1,0.7995,0.2329,-0.4833,0.2703,-1386,678,-1198,-2211,-27,-883,-972,847,-88,14.6678,63.9734,151.8331,1,0
0000989362,1,0.8033,0.2522,-0.4578,0.2854,-1314,743,-1231,-2023,71,-891,-991,930,28,17.5983,61.5822,151.4250,1,0
0000989383,1,0.8070,0.2700,-0.4300,0.3016,-1231,826,-1259,-1979,59,-883,-1074,922,95,20.0204,58.9632,150.4198,1,0
0000989404,1,0.8086,0.2919,-0.3944,0.3246,-1146,914,-1260,-1951,63,-715,-1169,885,117,22.6267,55.8237,148.3608,1,0
0000989425,1,0.8079,0.3091,-0.3644,0.3449,-1058,1019,-1245,-2067,407,-815,-1227,894,150,24.5384,53.3274,146.2271,1,0
0000989446,1,0.8061,0.3254,-0.3332,0.3651,-969,1116,-1214,-2139,639,-771,-1223,908,178,26.4203,50.7776,143.9875,1,0
0000989467,1,0.8025,0.3407,-0.3035,0.3845,-969,1116,-1214,-2003,839,-559,-1180,758,107,28.2363,48.5048,141.7360,1,0
0000989488,1,0.7956,0.3556,-0.2790,0.4033,-900,1207,-1161,-1763,895,-315,-1135,593,-5,29.9589,46.9554,139.5000,1,0
0000989509,1,0.7857,0.3740,-0.2523,0.4233,-861,1276,-1098,-1379,975,-303,-976,563,-68,32.2513,45.4857,137.1983,1,0
0000989530,1,0.7782,0.3866,-0.2340,0.4361,-825,1333,-1045,-1215,839,-295,-818,428,-55,33.9035,44.5345,135.6940,1,0
0000989551,1,0.7710,0.3955,-0.2209,0.4475,-812,1370,-990,-1187,907,-195,-671,233,-52,34.9607,44.0033,134.2366,1,0
0000989572,1,0.7639,0.4024,-0.2134,0.4572,-815,1395,-944,-1059,1119,-111,-505,67,-136,35.6447,43.9496,132.9742,1,0
0000989593,1,0.7567,0.4080,-0.2129,0.4644,-815,1395,-944,-883,1239,-139,-247,-175,-253,36.0585,44.5211,132.1001,1,0
0000989614,1,0.7490,0.4113,-0.2228,0.4692,-852,1391,-913,-915,1279,-191,17,-395,-302,35.8972,46.0377,131.5409,1,0
0000989635,1,0.7444,0.4099,-0.2396,0.4696,-905,1369,-892,-1023,1295,-187,268,-631,-334,35.0427,47.8683,131.4571,1,0
0000989656,1,0.7403,0.4043,-0.2638,0.4679,-986,1322,-876,-1363,1271,-203,478,-867,-364,33.3814,50.2579,131.4260,1,0
0000989677,1,0.7369,0.3949,-0.2933,0.4637,-1072,1267,-862,-1391,1347,-315,670,-1002,-332,30.9932,52.9818,131.3721,1,0
0000989698,1,0.7352,0.3803,-0.3269,0.4560,-1166,1190,-856,-1507,1411,-475,1045,-1172,-247,27.7131,55.8503,131.2826,1,0
0000989719,1,0.7375,0.3522,-0.3734,0.4389,-1166,1190,-856,-1843,1415,-515,1407,-1204,-68,22.0527,59.3108,131.1447,1,0
0000989740,1,0.7448,0.3207,-0.4105,0.4170,-1243,1110,-872,-2347,1535,-507,1807,-1115,104,16.4925,61.5220,131.3725,1,0
0000989761,1,0.7554,0.2847,-0.4445,0.3882,-1307,1010,-915,-2299,1455,-691,1964,-929,177,10.8566,63.2061,132.2929,1,0
0000989782,1,0.7652,0.2496,-0.4722,0.3593,-1353,921,-956,-2207,959,-1091,1745,-751,240,5.6828,64.4397,133.2845,1,0
0000989803,1,0.7736,0.2191,-0.4900,0.3368,-1374,870,-988,-2303,383,-1123,1279,-443,363,1.2023,64.9178,133.7098,1,0
0000989824,1,0.7826,0.1913,-0.4970,0.3222,-1364,867,-1013,-2083,195,-1167,632,-91,435,357.2483,64.3259,133.5120,1,0
0000989845,1,0.7882,0.1774,-0.4951,0.3196,-1364,867,-1013,-1851,91,-1339,272,69,411,355.2954,63.3686,132.9518,1,0
0000989866,1,0.7935,0.1694,-0.4886,0.3209,-1339,882,-1034,-1887,-91,-1463,52,261,357,354.5060,62.1389,132.6510,1,0
0000989887,1,0.7992,0.1671,-0.4782,0.3237,-1300,911,-1061,-1879,35,-1619,-75,422,226,355.0193,60.7441,132.9829,1,0
0000989908,1,0.8046,0.1702,-0.4668,0.3253,-1261,927,-1096,-1867,187,-1527,-143,487,44,356.6343,59.5245,134.0434,1,0
0000989929,1,0.8089,0.1789,-0.4554,0.3259,-1225,932,-1127,-1727,159,-1327,-212,540,-162,359.1920,58.5875,135.6598,1,0
0000989950,1,0.8123,0.1967,-0.4424,0.3252,-1203,924,-1155,-1643,51,-1275,-298,530,-367,3.4272,57.8497,138.2513,1,0
0000989971,1,0.8128,0.2153,-0.4330,0.3249,-1203,924,-1155,-1667,159,-1243,-427,522,-491,7.3309,57.5421,140.4477,1,0
0000989992,1,0.8102,0.2381,-0.4235,0.3279,-1181,923,-1163,-1675,359,-1083,-664,489,-588,11.5787,57.3898,142.2917,1,0
0000990013,1,0.8037,0.2649,-0.4137,0.3357,-1180,935,-1154,-1619,851,-919,-978,424,-635,15.9669,57.4456,143.4479,1,0
0000990034,1,0.7944,0.2928,-0.4029,0.3477,-1174,963,-1119,-1483,1111,-863,-1075,408,-556,20.1638,57.5322,143.8672,1,0
0000990055,1,0.7824,0.3245,-0.3866,0.3648,-1169,1001,-1084,-1415,1355,-975,-1029,435,-414,24.7090,57.3196,143.6538,1,0
0000990076,1,0.7745,0.3454,-0.3715,0.3778,-1145,1044,-1057,-1463,1371,-1107,-944,461,-271,27.6612,56.7746,143.1482,1,0
0000990097,1,0.7684,0.3627,-0.3551,0.3897,-1145,1044,-1057,-1411,1207,-1119,-849,499,-133,30.0781,55.9370,142.4600,1,0
0000990118,1,0.7638,0.3775,-0.3368,0.4007,-1117,1088,-1035,-1387,1039,-1171,-857,556,-69,32.1560,54.7942,141.6258,1,0
0000990139,1,0.7581,0.3935,-0.3168,0.4125,-1075,1141,-1010,-1411,1019,-1015,-972,594,-115,34.3972,53.5984,140.6701,1,0
0000990160,1,0.7459,0.4186,-0.2880,0.4306,-1045,1201,-957,-1343,1047,-735,-1252,651,-245,37.9041,52.2065,139.1079,1,0
0000990181,1,0.7317,0.4415,-0.2627,0.4480,-1016,1264,-884,-1075,1211,-495,-1396,649,-279,41.0253,51.2578,137.3951,1,0
0000990202,1,0.7164,0.4625,-0.2381,0.4649,-998,1317,-807,-1019,1499,-291,-1282,552,-221,43.8843,50.4616,135.5329,1,0
0000990223,1,0.7026,0.4784,-0.2173,0.4799,-998,1317,-807,-1035,1623,-179,-1061,391,-159,46.0031,49.8607,133.6555,1,0
0000990244,1,0.6907,0.4895,-0.2023,0.4923,-986,1356,-740,-911,1551,0,-735,165,-106,47.3900,49.5932,131.9641,1,0
0000990265,1,0.6798,0.4965,-0.1923,0.5044,-984,1381,-688,-891,1531,59,-471,-32,-70,48.0119,49.6665,130.1431,1,0
0000990286,1,0.6741,0.4966,-0.1918,0.5121,-991,1391,-646,-963,1383,187,-230,-246,-36,47.5217,50.1025,128.8096,1,0
0000990307,1,0.6706,0.4927,-0.1971,0.5184,-1007,1396,-612,-1123,1391,291,-17,-408,-9,46.2542,50.8144,127.5254,1,0
0000990328,1,0.6696,0.4851,-0.2075,0.5228,-1024,1385,-595,-1191,1259,371,201,-548,3,44.3029,51.7194,126.3664,1,0
0000990349,1,0.6705,0.4742,-0.2236,0.5250,-1024,1385,-595,-1215,1227,331,491,-768,-24,41.7016,52.9133,125.3419,1,0
0000990370,1,0.6745,0.4541,-0.2532,0.5242,-1055,1369,-587,-1567,1139,263,787,-975,5,37.0831,54.8449,124.0388,1,0
0000990391,1,0.6805,0.4318,-0.2845,0.5192,-1098,1331,-597,-1699,1119,267,1103,-1141,-3,32.1481,56.6734,122.9797,1,0
0000990412,1,0.6882,0.4050,-0.3213,0.5091,-1145,1282,-618,-1915,779,303,1417,-1267,-6,26.3181,58.7061,122.0005,1,0
0000990433,1,0.6977,0.3716,-0.3618,0.4942,-1201,1218,-652,-2499,543,55,1680,-1398,104,19.2007,60.7078,120.6894,1,0
0000990454,1,0.7083,0.3302,-0.4045,0.4750,-1248,1154,-686,-3019,143,255,1944,-1470,216,10.4082,62.4650,118.6331,1,0
0000990475,1,0.7198,0.2774,-0.4529,0.4470,-1248,1154,-686,-3047,-107,275,1767,-1301,173,359.2758,64.1622,115.8670,1,0
0000990496,1,0.7215,0.2430,-0.4875,0.4275,-1307,1089,-702,-3147,59,-115,1347,-1253,-12,350.7641,65.6673,112.7399,1,0
0000990517,1,0.7178,0.2150,-0.5188,0.4116,-1367,1032,-672,-3023,-27,-379,1108,-1207,-83,342.2190,67.1930,108.4758,1,0
0000990538,1,0.7132,0.1879,-0.5479,0.3949,-1430,974,-640,-2671,-27,-503,1186,-1112,-62,333.4111,68.4068,103.8018,1,0
0000990559,1,0.7097,0.1609,-0.5742,0.3753,-1481,917,-614,-2847,91,-427,1207,-952,-140,324.9595,69.3343,99.6275,1,0
0000990580,1,0.7059,0.1331,-0.6017,0.3493,-1528,855,-602,-2903,-35,-539,1028,-713,-209,315.9808,70.4640,95.4831,1,0
0000990601,1,0.7043,0.1174,-0.6172,0.3304,-1528,855,-602,-2671,35,-623,867,-478,-207,310.9596,71.2669,93.5225,1,0
0000990622,1,0.7041,0.1048,-0.6291,0.3123,-1556,804,-597,-2399,335,-519,795,-356,-270,307.2450,72.0560,92.5003,1,0
0000990643,1,0.7044,0.0961,-0.6392,0.2933,-1582,741,-604,-2239,255,-531,724,-250,-354,304.4391,73.1082,92.1148,1,0
0000990664,1,0.7059,0.0909,-0.6462,0.2756,-1598,686,-614,-1887,51,-603,529,-14,-344,303.0676,74.2253,92.7371,1,0
0000990685,1,0.7106,0.0896,-0.6486,0.2577,-1604,638,-647,-1875,-219,-603,374,152,-308,304.5653,75.4440,95.9023,1,0
0000990706,1,0.7154,0.0925,-0.6474,0.2461,-1596,598,-683,-2019,-259,-603,238,249,-341,307.8134,76.3559,99.9049,1,0
0000990727,1,0.7207,0.0995,-0.6443,0.2358,-1596,598,-683,-2175,-367,-591,80,349,-430,313.0518,77.3199,105.4532,1,0
0000990748,1,0.7257,0.1124,-0.6396,0.2273,-1593,551,-728,-2267,-471,-527,-140,420,-513,320.8564,78.3455,112.9136,1,0
0000990769,1,0.7299,0.1307,-0.6329,0.2227,-1574,516,-768,-2435,-367,-391,-412,487,-533,331.0424,79.1572,121.9698,1,0
0000990790,1,0.7340,0.1611,-0.6204,0.2244,-1556,498,-810,-2539,-131,-179,-773,588,-538,346.7379,79.4503,134.9646,1,0
0000990811,1,0.7362,0.1902,-0.6074,0.2300,-1525,499,-850,-2543,-47,-115,-970,645,-544,0.2108,79.0554,145.4743,1,0
0000990832,1,0.7372,0.2214,-0.5919,0.2392,-1498,520,-884,-2559,59,-27,-1115,657,-484,12.1418,78.1145,153.9088,1,0
0000990853,1,0.7370,0.2524,-0.5747,0.2508,-1498,520,-884,-2575,299,199,-1177,658,-428,21.5520,76.8201,159.5762,1,0
0000990874,1,0.7358,0.2829,-0.5560,0.2634,-1459,552,-911,-2407,379,279,-1205,660,-390,29.1121,75.3076,163.2655,1,0
0000990895,1,0.7339,0.3114,-0.5363,0.2771,-1429,594,-936,-2187,515,223,-1206,648,-268,34.7081,73.6903,164.9883,1,0
0000990916,1,0.7333,0.3383,-0.5102,0.2958,-1385,656,-950,-2047,439,-51,-1020,606,60,37.7995,71.5147,163.7593,1,0
0000990937,1,0.7350,0.3519,-0.4888,0.3116,-1343,730,-959,-1947,295,-351,-927,544,254,37.7499,69.6765,160.8220,1,0
0000990958,1,0.7366,0.3607,-0.4675,0.3297,-1343,730,-959,-1727,67,-503,-938,452,419,36.4099,67.9097,156.7553,1,0
0000990979,1,0.7373,0.3672,-0.4453,0.3512,-1291,825,-946,-1591,175,-495,-1092,380,516,34.4106,66.1319,151.8546,1,0
0000991000,1,0.7353,0.3736,-0.4222,0.3761,-1241,929,-909,-1603,395,-495,-1199,315,523,32.4712,64.4163,146.6072,1,0
0000991021,1,0.7288,0.3802,-0.3944,0.4108,-1189,1036,-840,-1683,787,-455,-1240,152,550,29.9347,62.5292,139.6285,1,0
0000991042,1,0.7223,0.3814,-0.3748,0.4386,-1149,1135,-758,-1739,1095,-511,-1097,0,612,27.4347,61.1585,133.8804,1,0
0000991063,1,0.7166,0.3768,-0.3595,0.4640,-1105,1221,-672,-1855,1171,-587,-827,-165,671,24.2837,59.8647,128.2827,1,0
0000991084,1,0.7133,0.3665,-0.3485,0.4853,-1105,1221,-672,-1895,1003,-619,-567,-261,729,20.6897,58.5180,123.2129,1,0
0000991105,1,0.7111,0.3538,-0.3382,0.5048,-1059,1291,-604,-1803,1043,-583,-551,-212,768,17.2465,56.9407,118.6675,1,0
0000991126,1,0.7101,0.3369,-0.3239,0.5267,-999,1360,-540,-1675,995,-507,-353,-185,805,13.6900,54.5754,113.9556,1,0
0000991147,1,0.7122,0.3215,-0.3132,0.5397,-937,1414,-502,-1595,911,-475,-208,-136,806,11.3534,52.4784,111.3035,1,0
0000991168,1,0.7159,0.3062,-0.3027,0.5497,-866,1463,-481,-1595,871,-447,-107,-91,769,9.5340,50.3518,109.4485,1,0
0000991189,1,0.7201,0.2915,-0.2932,0.5572,-803,1495,-470,-1507,855,-339,-20,-89,698,8.0575,48.3395,108.1590,1,0
0000991210,1,0.7249,0.2770,-0.2860,0.5621,-803,1495,-470,-1211,851,-199,123,-147,604,6.6912,46.5572,107.3069,1,0
0000991231,1,0.7315,0.2585,-0.2819,0.5645,-748,1520,-472,-1163,963,-307,251,-245,489,4.8424,44.7688,106.6806,1,0
0000991252,1,0.7368,0.2425,-0.2865,0.5624,-718,1526,-489,-1575,887,-219,464,-476,298,2.7962,44.0268,106.4230,1,0
0000991273,1,0.7423,0.2251,-0.2981,0.5563,-713,1517,-522,-2291,1079,51,633,-612,204,0.1927,43.8708,106.3737,1,0
0000991294,1,0.7480,0.2077,-0.3118,0.5478,-725,1494,-562,-1835,1443,63,677,-594,100,357.5449,43.9549,106.5766,1,0
0000991315,1,0.7531,0.1940,-0.3279,0.5363,-762,1456,-617,-1115,1891,-27,815,-594,-156,355.2015,44.5861,107.1169,1,0
0000991336,1,0.7611,0.1788,-0.3524,0.5144,-762,1456,-617,-947,1955,131,1017,-575,-277,352.5137,46.0799,108.7126,1,0
0000991357,1,0.7693,0.1674,-0.3720,0.4917,-813,1399,-685,-819,1919,439,1118,-481,-310,350.7817,47.4781,110.7657,1,0
0000991378,1,0.7789,0.1568,-0.3889,0.4664,-862,1331,-775,-947,1787,471,1219,-331,-287,349.6357,48.7670,113.4653,1,0
0000991399,1,0.7912,0.1446,-0.4035,0.4361,-902,1242,-881,-931,1587,199,1471,-271,-263,348.9771,49.8788,117.1385,1,0
0000991420,1,0.8052,0.1274,-0.4191,0.3996,-944,1131,-1003,-1095,1055,-3,1786,-382,-179,348.1002,50.9693,121.5207,1,0
0000991462,1,0.8317,0.0672,-0.4579,0.3068,-988,996,-1109,-1367,383,-511,1863,-607,-5,343.5057,53.4111,131.1615,1,0
0000991483,1,0.8369,0.0429,-0.4740,0.2703,-1037,869,-1176,-1519,403,-799,1524,-582,-55,341.3638,54.7435,134.4860,1,0
0000991504,1,0.8387,0.0241,-0.4881,0.2403,-1086,763,-1207,-1703,611,-991,1226,-530,-103,339.6131,56.1359,137.0751,1,0
0000991525,1,0.8394,0.0098,-0.5000,0.2128,-1133,664,-1227,-1787,607,-1151,1099,-394,-225,338.5591,57.5206,139.6818,1,0
0000991546,1,0.8403,-0.0035,-0.5120,0.1783,-1176,560,-1238,-2023,535,-1343,1060,-353,-278,338.3831,59.2229,143.6491,1,0
0000991567,1,0.8406,-0.0127,-0.5198,0.1518,-1208,467,-1250,-2215,519,-1539,983,-266,-263,338.6837,60.4648,147.0050,1,0
0000991588,1,0.8416,-0.0214,-0.5247,0.1266,-1208,467,-1250,-2179,411,-1607,984,-168,-242,339.3793,61.3702,150.5732,1,0
0000991609,1,0.8430,-0.0297,-0.5278,0.0993,-1227,368,-1256,-1987,-179,-1467,1048,-121,-342,340.6521,62.1339,154.8324,1,0
0000991630,1,0.8440,-0.0340,-0.5308,0.0697,-1247,254,-1264,-2007,-1035,-1791,947,-132,-549,343.1581,63.0179,160.1866,1,0
0000991651,1,0.8438,-0.0316,-0.5345,0.0367,-1261,152,-1255,-2191,-1343,-1979,593,-115,-626,347.7436,64.1121,167.3198,1,0
0000991672,1,0.8435,-0.0201,-0.5363,0.0218,-1264,87,-1254,-2375,-1103,-1707,28,-25,-685,352.2989,64.6741,172.1617,1,0
0000991693,1,0.8449,-0.0013,-0.5348,0.0163,-1244,62,-1267,-2455,-839,-1371,-315,165,-716,357.3750,64.6258,176.1306,1,0
0000991714,1,0.8470,0.0228,-0.5308,0.0171,-1244,62,-1267,-1967,-1323,-1571,-622,147,-758,2.6830,64.1572,179.3641,1,0
0000991735,1,0.8476,0.0504,-0.5277,0.0235,-1229,59,-1281,-2059,-391,-1951,-967,205,-698,7.8871,63.7562,-178.2667,1,0
0000991756,1,0.8501,0.0887,-0.5171,0.0457,-1197,105,-1305,-2447,-415,-1675,-1370,376,-511,12.9827,62.5261,-178.2480,1,0
0000991777,1,0.8533,0.1184,-0.5026,0.0727,-1155,196,-1348,-2419,-299,-1655,-1535,532,-317,15.4370,61.0430,179.3903,1,0
0000991798,1,0.8561,0.1458,-0.4849,0.1038,-1101,318,-1370,-2287,-83,-1399,-1613,559,-183,17.0052,59.3697,175.9105,1,0
0000991819,1,0.8581,0.1706,-0.4647,0.1365,-1047,445,-1384,-1907,99,-1163,-1580,633,-69,18.0182,57.5683,171.8764,1,0
0000991840,1,0.8592,0.1927,-0.4432,0.1682,-1047,445,-1384,-1603,127,-859,-1547,601,-39,18.8653,55.7253,167.8857,1,0
0000991861,1,0.8566,0.2203,-0.4170,0.2093,-990,578,-1369,-1503,363,-703,-1621,514,-50,20.0675,53.7714,162.7935,1,0
0000991882,1,0.8516,0.2425,-0.3961,0.2431,-947,712,-1337,-1443,567,-615,-1659,483,-71,21.1915,52.4217,158.6644,1,0
0000991903,1,0.8444,0.2645,-0.3751,0.2764,-907,842,-1277,-1339,551,-527,-1659,461,-86,22.4671,51.2280,154.6293,1,0
0000991924,1,0.8349,0.2863,-0.3540,0.3092,-880,961,-1204,-1419,527,-571,-1653,420,-119,23.8824,50.1877,150.6713,1,0
0000991945,1,0.8230,0.3080,-0.3340,0.3410,-858,1069,-1108,-1451,555,-563,-1629,356,-190,25.4355,49.4437,146.8560,1,0
0000991966,1,0.8090,0.3295,-0.3153,0.3708,-858,1069,-1108,-1419,679,-471,-1559,325,-225,27.1416,48.9809,143.3013,1,0
0000991987,1,0.7899,0.3550,-0.2945,0.4040,-854,1153,-1011,-1491,859,-419,-1404,252,-291,29.3439,48.7759,139.3663,1,0
0000992008,1,0.7742,0.3743,-0.2805,0.4264,-856,1219,-912,-1579,1039,-383,-1247,245,-332,31.1835,48.8936,136.7745,1,0
0000992029,1,0.7591,0.3929,-0.2680,0.4445,-868,1260,-833,-1711,1031,-331,-1088,251,-371,33.1903,49.1202,134.8131,1,0
0000992050,1,0.7446,0.4100,-0.2565,0.4600,-881,1294,-756,-1807,999,-271,-973,227,-322,35.1417,49.3998,133.1562,1,0
0000992071,1,0.7312,0.4251,-0.2459,0.4735,-897,1313,-695,-1783,1095,-239,-869,224,-306,36.9079,49.6546,131.6932,1,0
0000992092,1,0.7164,0.4428,-0.2349,0.4853,-897,1313,-695,-1735,1251,-175,-653,246,-356,39.2470,50.0296,130.6603,1,0
0000992113,1,0.7063,0.4567,-0.2282,0.4904,-916,1321,-654,-1623,1251,-111,-509,273,-376,41.3570,50.3799,130.5845,1,0
0000992134,1,0.6975,0.4695,-0.2225,0.4935,-934,1318,-632,-1487,1239,-51,-409,233,-339,43.4078,50.6952,130.7994,1,0
0000992155,1,0.6906,0.4788,-0.2201,0.4954,-953,1314,-617,-1451,1227,-75,-219,92,-287,44.9119,51.1077,131.0527,1,0
0000992176,1,0.6864,0.4840,-0.2228,0.4950,-977,1295,-620,-1371,1223,-27,98,-81,-255,45.7597,51.7173,131.5260,1,0
0000992197,1,0.6847,0.4856,-0.2338,0.4907,-1005,1270,-630,-1447,1191,187,318,-221,-241,46.0952,52.8128,132.5961,1,0
0000992218,1,0.6854,0.4831,-0.2476,0.4853,-1005,1270,-630,-1519,1223,343,488,-327,-221,45.7836,53.9366,133.6511,1,0
0000992239,1,0.6876,0.4781,-0.2648,0.4781,-1038,1231,-651,-1539,1251,335,640,-416,-199,45.1130,55.2102,134.8797,1,0
0000992260,1,0.6912,0.4698,-0.2851,0.4693,-1073,1191,-676,-1543,1243,279,804,-503,-153,43.9553,56.6237,136.1893,1,0
0000992281,1,0.6965,0.4578,-0.3079,0.4589,-1109,1141,-709,-1667,1099,175,960,-617,-57,42.2210,58.1010,137.4447,1,0
0000992302,1,0.7038,0.4378,-0.3385,0.4455,-1143,1097,-731,-1691,955,103,1014,-709,0,39.0687,60.0540,138.5134,1,0
0000992323,1,0.7091,0.4182,-0.3650,0.4348,-1143,1097,-731,-1771,875,23,1088,-831,35,35.6880,61.8017,138.7777,1,0
0000992344,1,0.7134,0.3949,-0.3950,0.4231,-1185,1047,-741,-1895,803,-3,1227,-988,40,31.3661,63.8710,138.5087,1,0
0000992365,1,0.7169,0.3676,-0.4284,0.4091,-1233,993,-742,-1999,759,-35,1393,-1115,47,25.9570,66.2093,137.6640,1,0
0000992386,1,0.7191,0.3362,-0.4644,0.3927,-1291,926,-730,-2143,627,-59,1524,-1229,69,19.1260,68.7410,135.8681,1,0
0000992407,1,0.7194,0.2904,-0.5108,0.3703,-1350,866,-702,-2403,439,-95,1656,-1368,191,7.2837,71.8234,130.8095,1,0
0000992428,1,0.7181,0.2465,-0.5484,0.3504,-1405,807,-661,-2519,307,35,1851,-1457,308,353.7454,73.8228,123.2729,1,0
0000992449,1,0.7156,0.1987,-0.5844,0.3271,-1405,807,-661,-2139,131,159,1914,-1406,307,337.6184,75.0791,113.5735,1,0
0000992470,1,0.7100,0.1542,-0.6164,0.3036,-1459,754,-619,-2159,75,-3,1679,-1316,211,321.1226,75.6703,103.0377,1,0
0000992491,1,0.7019,0.1149,-0.6438,0.2824,-1506,708,-558,-2375,-235,-107,1472,-1191,213,305.5793,75.5929,92.6821,1,0
0000992512,1,0.6906,0.0714,-0.6707,0.2611,-1545,681,-503,-2871,-455,-215,1173,-1017,252,289.7316,74.4946,82.2789,1,0
0000992533,1,0.6805,0.0418,-0.6886,0.2469,-1570,666,-439,-3099,-259,-191,1011,-952,163,279.6418,73.3106,75.8311,1,0
0000992554,1,0.6696,0.0170,-0.7055,0.2314,-1601,635,-383,-2727,223,-187,961,-899,9,270.7382,72.3167,70.2645,1,0
0000992575,1,0.6595,-0.0065,-0.7211,0.2122,-1601,635,-383,-2331,159,-111,1081,-822,-96,262.7484,71.5177,65.8002,1,0
0000992596,1,0.6509,-0.0285,-0.7344,0.1903,-1626,596,-331,-2235,-239,59,902,-639,-201,255.7735,70.9322,62.4480,1,0
0000992617,1,0.6430,-0.0419,-0.7457,0.1694,-1653,555,-296,-2191,-531,123,387,-330,-312,249.3191,70.8767,58.8238,1,0
0000992638,1,0.6409,-0.0378,-0.7496,0.1609,-1668,518,-281,-2299,-499,-3,-94,-31,-359,246.3954,71.5701,56.2738,1,0
0000992659,1,0.6420,-0.0248,-0.7496,0.1591,-1676,487,-292,-2431,-259,-91,-409,174,-350,245.1679,72.6621,54.1441,1,0
0000992680,1,0.6458,-0.0078,-0.7464,0.1608,-1675,464,-322,-2455,15,19,-536,359,-350,245.4353,74.0421,52.8891,1,0
0000992701,1,0.6526,0.0125,-0.7396,0.1643,-1675,464,-322,-2403,203,175,-686,582,-337,247.4249,75.7862,52.9454,1,0
0000992722,1,0.6637,0.0403,-0.7268,0.1720,-1667,448,-381,-2415,179,151,-739,665,-271,253.0708,78.1498,55.7090,1,0
0000992743,1,0.6732,0.0613,-0.7147,0.1796,-1653,447,-439,-2387,55,63,-695,694,-196,260.4863,79.8315,60.7951,1,0
0000992764,1,0.6824,0.0813,-0.7019,0.1874,-1632,452,-504,-2371,-47,-67,-726,670,-185,270.5666,81.2483,68.5971,1,0
0000992785,1,0.6894,0.1027,-0.6896,0.1965,-1611,461,-554,-2371,-183,-135,-821,598,-210,282.1104,82.3954,77.6254,1,0
0000992806,1,0.6947,0.1259,-0.6773,0.2068,-1591,474,-598,-2091,-223,-79,-903,588,-223,295.7728,83.2915,88.5116,1,0
0000992827,1,0.6988,0.1505,-0.6643,0.2184,-1591,474,-598,-2083,-271,-11,-1016,553,-219,312.0511,83.8276,101.7669,1,0
0000992848,1,0.7014,0.1823,-0.6476,0.2354,-1573,496,-628,-1979,-183,-103,-1087,528,-188,332.6495,83.8691,118.2421,1,0
0000992869,1,0.7018,0.2078,-0.6336,0.2507,-1552,526,-655,-1963,-211,-255,-1127,474,-150,346.8459,83.4647,128.9472,1,0
0000992890,1,0.7010,0.2312,-0.6195,0.2671,-1533,567,-666,-1931,-315,-239,-1095,435,-70,356.9345,82.7742,135.5804,1,0
0000992911,1,0.6995,0.2534,-0.6048,0.2840,-1513,611,-672,-1971,-267,-227,-1117,430,-46,4.4857,81.9304,139.6942,1,0
0000992932,1,0.6972,0.2755,-0.5893,0.3013,-1495,659,-665,-1991,-439,-211,-1164,403,-36,10.6979,81.0058,142.3992,1,0
0000992953,1,0.6916,0.3038,-0.5691,0.3250,-1495,659,-665,-2087,-423,-119,-1259,376,-22,16.6633,79.9149,143.6452,1,0
0000992974,1,0.6848,0.3275,-0.5519,0.3454,-1477,707,-649,-2147,-227,-55,-1368,347,-52,20.8635,79.1187,143.7590,1,0
0000992995,1,0.6747,0.3529,-0.5339,0.3675,-1465,760,-609,-2115,-223,91,-1490,293,-104,24.8766,78.5110,143.2790,1,0
0000993016,1,0.6616,0.3794,-0.5154,0.3907,-1457,807,-559,-1975,-187,91,-1580,236,-109,28.7701,78.1001,142.3750,1,0
0000993037,1,0.6470,0.4041,-0.4964,0.4143,-1450,856,-495,-2015,79,191,-1471,186,-39,31.7089,77.7504,140.5210,1,0
0000993058,1,0.6296,0.4290,-0.4740,0.4414,-1443,897,-432,-2127,391,203,-1314,124,29,33.6936,77.3247,137.1660,1,0
0000993079,1,0.6166,0.4436,-0.4578,0.4619,-1443,897,-432,-2163,431,223,-1168,35,112,33.5535,77.0238,133.3041,1,0
0000993100,1,0.6049,0.4540,-0.4426,0.4817,-1436,938,-359,-2111,519,107,-1055,-14,203,32.1019,76.6303,128.5560,1,0
0000993121,1,0.5949,0.4607,-0.4275,0.5011,-1423,982,-293,-2055,539,-59,-927,-43,354,29.6741,76.0113,123.1769,1,0
0000993142,1,0.5870,0.4636,-0.4119,0.5204,-1398,1038,-223,-2003,507,-143,-859,-88,470,26.6197,75.0424,117.4846,1,0
0000993163,1,0.5783,0.4630,-0.3921,0.5454,-1366,1090,-152,-1979,567,-155,-831,-137,545,22.2376,73.4385,110.0393,1,0
0000993184,1,0.5730,0.4594,-0.3768,0.5645,-1327,1148,-84,-2091,699,-39,-660,-159,588,18.9802,71.8961,104.6835,1,0
0000993205,1,0.5710,0.4530,-0.3642,0.5798,-1327,1148,-84,-2283,827,139,-401,-151,586,16.3191,70.2461,100.6363,1,0
0000993226,1,0.5726,0.4449,-0.3542,0.5905,-1288,1193,-47,-2279,791,323,-185,-99,544,14.4714,68.6132,98.1323,1,0
0000993247,1,0.5757,0.4375,-0.3456,0.5981,-1247,1236,-26,-2119,883,367,-109,-47,467,13.4107,67.1145,96.7241,1,0
0000993268,1,0.5800,0.4286,-0.3365,0.6055,-1214,1267,-16,-1835,947,299,-34,-64,441,12.4464,65.4253,95.5445,1,0
0000993289,1,0.5851,0.4199,-0.3315,0.6095,-1178,1300,-16,-1807,947,251,121,-97,431,11.5338,64.1177,94.8985,1,0
0000993310,1,0.5920,0.4096,-0.3290,0.6111,-1148,1322,-27,-1783,987,243,261,-139,391,10.4840,62.9049,94.6103,1,0
0000993331,1,0.5993,0.3980,-0.3299,0.6113,-1148,1322,-27,-1819,919,199,344,-237,328,8.9993,61.8802,94.2664,1,0
0000993352,1,0.6058,0.3852,-0.3337,0.6110,-1122,1342,-39,-1619,851,267,402,-340,263,6.9900,61.0446,93.6351,1,0
0000993373,1,0.6137,0.3679,-0.3417,0.6093,-1107,1353,-54,-1479,795,347,494,-381,230,4.0615,60.1921,92.7721,1,0
0000993394,1,0.6216,0.3526,-0.3507,0.6052,-1090,1364,-78,-1419,903,435,666,-412,184,1.5734,59.6255,92.4308,1,0
0000993415,1,0.6310,0.3356,-0.3635,0.5976,-1089,1359,-123,-1615,931,375,852,-496,93,358.7818,59.2922,92.4217,1,0
0000993436,1,0.6405,0.3171,-0.3806,0.5868,-1096,1347,-168,-1615,979,271,981,-587,-8,355.4598,59.2794,92.4218,1,0
0000993457,1,0.6493,0.2976,-0.4011,0.5736,-1096,1347,-168,-1591,1027,99,1087,-670,-112,351.6440,59.5644,92.2995,1,0
0000993478,1,0.6600,0.2728,-0.4282,0.5537,-1123,1318,-221,-1419,1019,3,1141,-623,-141,346.7537,60.1542,92.3238,1,0
0000993499,1,0.6688,0.2531,-0.4492,0.5356,-1146,1288,-278,-1399,1019,-127,1175,-603,-164,343.0545,60.6896,92.6599,1,0
0000993520,1,0.6768,0.2329,-0.4707,0.5159,-1178,1245,-330,-1643,895,-275,1214,-642,-187,339.1843,61.3325,92.9322,1,0
0000993541,1,0.6838,0.2118,-0.4924,0.4951,-1210,1202,-383,-1671,959,-279,1227,-651,-195,335.0465,62.0186,93.0281,1,0
0000993562,1,0.6903,0.1919,-0.5129,0.4728,-1252,1143,-430,-1595,1059,-291,1218,-547,-295,331.1897,62.8237,93.3519,1,0
0000993583,1,0.6971,0.1708,-0.5375,0.4427,-1252,1143,-430,-1555,859,-503,1154,-528,-365,326.8474,64.2372,94.0014,1,0
0000993604,1,0.7012,0.1552,-0.5550,0.4198,-1294,1081,-472,-1823,871,-435,1051,-442,-287,323.5319,65.3159,94.3397,1,0
0000993625,1,0.7062,0.1417,-0.5681,0.3981,-1326,1024,-512,-1779,1107,-383,998,-271,-282,321.2704,66.2320,95.3475,1,0
0000993646,1,0.7117,0.1301,-0.5793,0.3754,-1357,962,-559,-1735,947,-499,975,-232,-341,319.7366,67.2615,96.9752,1,0
0000993667,1,0.7158,0.1201,-0.5900,0.3536,-1386,903,-590,-2015,695,-603,832,-203,-309,318.2552,68.3838,98.3799,1,0
0000993688,1,0.7204,0.1104,-0.5997,0.3306,-1386,903,-590,-2083,635,-807,676,-94,-273,317.1994,69.5447,100.2602,1,0
0000993709,1,0.7243,0.1064,-0.6048,0.3137,-1406,851,-623,-1875,555,-919,575,-9,-359,317.5042,70.5203,102.4258,1,0
0000993730,1,0.7270,0.1071,-0.6090,0.2984,-1427,798,-649,-1875,347,-835,357,25,-423,318.5506,71.7063,104.7857,1,0
0000993751,1,0.7279,0.1128,-0.6123,0.2872,-1444,746,-663,-2051,311,-875,110,42,-456,320.1636,72.9844,106.9243,1,0
0000993772,1,0.7275,0.1223,-0.6145,0.2794,-1462,708,-669,-2095,547,-919,-85,84,-466,322.4009,74.2705,109.0708,1,0
0000993793,1,0.7267,0.1368,-0.6155,0.2728,-1472,674,-676,-2075,607,-875,-154,130,-427,326.2379,75.7238,112.2940,1,0
0000993814,1,0.7268,0.1486,-0.6142,0.2690,-1472,674,-676,-1983,567,-703,-188,178,-387,330.3684,76.6142,115.7700,1,0
0000993835,1,0.7265,0.1603,-0.6128,0.2663,-1478,650,-684,-1979,403,-671,-213,159,-359,334.6707,77.3786,119.3404,1,0
0000993856,1,0.7257,0.1727,-0.6109,0.2651,-1479,626,-694,-1999,171,-607,-325,158,-345,339.2859,78.0331,123.0128,1,0
0000993877,1,0.7236,0.1873,-0.6082,0.2673,-1484,617,-691,-2127,63,-711,-532,162,-339,344.1313,78.6074,126.4365,1,0
0000993898,1,0.7205,0.2053,-0.6039,0.2720,-1483,611,-690,-1995,159,-647,-711,222,-380,350.0165,79.0958,130.3802,1,0
0000993919,1,0.7150,0.2320,-0.5964,0.2816,-1488,619,-676,-1991,119,-663,-851,206,-364,358.6786,79.5688,135.8990,1,0
0000993940,1,0.7089,0.2544,-0.5892,0.2925,-1488,619,-676,-2135,251,-563,-960,198,-314,5.1488,79.8074,139.4583,1,0
0000993961,1,0.7021,0.2770,-0.5801,0.3061,-1487,633,-662,-1947,363,-455,-1058,214,-237,11.0391,79.8242,142.1345,1,0
0000993982,1,0.6948,0.2997,-0.5689,0.3222,-1485,663,-639,-1855,399,-411,-1197,239,-159,16.0707,79.6200,143.6633,1,0
0000994003,1,0.6864,0.3229,-0.5552,0.3411,-1477,699,-609,-2031,571,-355,-1289,241,-105,20.2106,79.2555,143.9348,1,0
0000994024,1,0.6753,0.3508,-0.5349,0.3671,-1466,749,-575,-1959,579,-303,-1321,293,-6,24.0451,78.5264,142.6924,1,0
0000994045,1,0.6665,0.3722,-0.5164,0.3880,-1452,800,-540,-1899,491,-223,-1334,321,29,26.7027,77.7402,141.2478,1,0
0000994066,1,0.6570,0.3933,-0.4963,0.4091,-1452,800,-540,-1771,507,-75,-1384,335,33,29.2205,76.8900,139.5564,1,0
0000994087,1,0.6456,0.4152,-0.4750,0.4304,-1434,852,-498,-1663,523,-31,-1418,315,1,31.9686,76.0854,137.8922,1,0
0000994108,1,0.6327,0.4358,-0.4544,0.4508,-1423,896,-446,-1719,547,-3,-1330,238,-19,34.4099,75.4597,136.0104,1,0
0000994129,1,0.6157,0.4581,-0.4318,0.4738,-1416,932,-387,-1875,607,-3,-1216,164,-39,36.7926,75.0000,133.4776,1,0
0000994150,1,0.6020,0.4736,-0.4162,0.4899,-1416,953,-331,-2011,711,-47,-1083,123,-64,38.4140,74.8400,131.5719,1,0
0000994171,1,0.5891,0.4865,-0.4031,0.5038,-1418,972,-271,-2119,399,-159,-940,55,-66,39.6412,74.8257,129.7510,1,0
0000994192,1,0.5761,0.4966,-0.3921,0.5174,-1418,972,-271,-2215,387,-111,-885,-49,-32,39.8883,74.9511,127.2417,1,0
0000994213,1,0.5633,0.5042,-0.3825,0.5311,-1422,982,-209,-2247,491,3,-768,-103,3,39.1208,75.1457,123.9468,1,0
0000994234,1,0.5506,0.5104,-0.3724,0.5455,-1422,999,-151,-2163,499,143,-568,-81,61,37.7051,75.2393,120.0228,1,0
0000994255,1,0.5448,0.5120,-0.3661,0.5541,-1418,1010,-111,-2127,443,211,-369,-97,131,36.1981,75.0863,117.2213,1,0
0000994276,1,0.5418,0.5104,-0.3615,0.5614,-1407,1029,-80,-2251,503,295,-231,-119,188,34.0959,74.7745,114.3480,1,0
0000994297,1,0.5410,0.5079,-0.3575,0.5670,-1397,1047,-62,-2231,695,487,-145,-64,197,32.2583,74.3329,112.0386,1,0
0000994318,1,0.5416,0.5058,-0.3534,0.5709,-1397,1047,-62,-2055,763,507,-110,-7,194,31.1804,73.8097,110.6539,1,0
0000994339,1,0.5427,0.5028,-0.3481,0.5757,-1382,1067,-48,-2027,783,415,-103,-44,223,29.9061,73.1020,109.0127,1,0
0000994360,1,0.5449,0.4980,-0.3446,0.5799,-1369,1086,-38,-1951,779,287,12,-106,305,28.2157,72.3970,107.2797,1,0
0000994381,1,0.5499,0.4898,-0.3423,0.5835,-1344,1118,-31,-2003,651,215,139,-141,381,25.9541,71.4588,105.4274,1,0
0000994402,1,0.5563,0.4801,-0.3404,0.5866,-1318,1149,-29,-2143,523,123,165,-151,398,23.6790,70.4002,103.7793,1,0
0000994423,1,0.5623,0.4702,-0.3392,0.5897,-1288,1182,-25,-1879,715,315,194,-187,382,21.4343,69.3791,102.2017,1,0
0000994444,1,0.5718,0.4545,-0.3409,0.5918,-1288,1182,-25,-1767,747,531,418,-275,397,18.1777,68.0984,100.3691,1,0
0000994465,1,0.5819,0.4385,-0.3456,0.5913,-1262,1210,-37,-1755,511,567,571,-338,413,15.1119,67.0383,99.1276,1,0
0000994486,1,0.5929,0.4208,-0.3516,0.5897,-1229,1241,-52,-1827,227,335,624,-363,418,11.9434,65.9618,98.0801,1,0
0000994507,1,0.6034,0.4023,-0.3580,0.5881,-1204,1269,-72,-1879,139,175,596,-410,409,8.7117,64.8639,97.0058,1,0
0000994528,1,0.6114,0.3838,-0.3657,0.5875,-1175,1290,-75,-1879,71,0,536,-542,333,5.1667,63.9173,95.5056,1,0
0000994549,1,0.6178,0.3598,-0.3792,0.5874,-1162,1303,-72,-1895,107,-23,551,-659,248,359.8838,63.0341,92.8139,1,0
0000994570,1,0.6215,0.3395,-0.3934,0.5862,-1162,1303,-72,-1971,199,-19,617,-738,156,355.1126,62.5066,90.3794,1,0
0000994591,1,0.6237,0.3195,-0.4107,0.5833,-1152,1307,-65,-2187,263,0,651,-795,45,350.0442,62.2544,87.8156,1,0
0000994612,1,0.6249,0.2996,-0.4302,0.5785,-1162,1302,-63,-2355,355,-7,697,-831,-63,344.6860,62.1688,85.1447,1,0
0000994633,1,0.6249,0.2808,-0.4522,0.5711,-1176,1287,-58,-2343,351,-19,764,-858,-215,339.0945,62.3537,82.4125,1,0
0000994654,1,0.6236,0.2579,-0.4824,0.5585,-1215,1255,-58,-2203,487,-3,804,-885,-327,331.5973,62.8376,78.7291,1,0
0000994675,1,0.6223,0.2398,-0.5081,0.5450,-1250,1221,-61,-2147,535,175,926,-860,-371,325.2948,63.3588,75.7506,1,0
0000994696,1,0.6233,0.2213,-0.5327,0.5280,-1250,1221,-61,-2247,579,283,1029,-727,-385,319.4092,63.8601,73.5048,1,0
0000994717,1,0.6265,0.2045,-0.5546,0.5081,-1291,1178,-91,-2227,739,279,1062,-552,-433,314.4297,64.5088,72.2233,1,0
0000994738,1,0.6308,0.1896,-0.5747,0.4858,-1330,1129,-131,-2159,671,167,1090,-490,-459,309.9886,65.3833,71.4702,1,0
0000994759,1,0.6356,0.1693,-0.5987,0.4570,-1370,1076,-170,-2063,543,83,1126,-519,-402,304.2023,66.3223,70.3955,1,0
0000994780,1,0.6394,0.1514,-0.6167,0.4336,-1405,1027,-199,-2175,391,171,1136,-479,-391,299.5757,66.9091,69.6294,1,0
0000994801,1,0.6427,0.1364,-0.6330,0.4094,-1444,965,-234,-2399,455,215,1040,-389,-474,295.1882,67.7222,68.8582,1,0
0000994822,1,0.6451,0.1248,-0.6483,0.3848,-1444,965,-234,-2207,443,163,963,-370,-553,290.7903,68.8105,67.7854,1,0
0000994843,1,0.6451,0.1134,-0.6642,0.3603,-1484,895,-243,-1923,443,231,971,-485,-502,285.4480,69.8362,65.6703,1,0
0000994864,1,0.6450,0.0988,-0.6794,0.3357,-1522,829,-261,-1983,639,339,1084,-424,-434,279.8971,70.5146,63.5721,1,0
0000994885,1,0.6497,0.0776,-0.6935,0.3017,-1548,764,-291,-1959,523,195,1212,-206,-399,274.7149,71.4229,63.1747,1,0
0000994906,1,0.6547,0.0610,-0.7012,0.2756,-1570,707,-326,-2007,227,-47,1089,-153,-302,271.7156,72.1383,63.8342,1,0
0000994927,1,0.6599,0.0461,-0.7048,0.2563,-1572,687,-363,-2023,227,43,819,15,-74,270.4223,72.5175,65.4317,1,0
0000994948,1,0.6671,0.0345,-0.7024,0.2459,-1572,687,-363,-1963,159,175,483,233,108,272.1073,72.5688,68.9613,1,0
0000994969,1,0.6740,0.0261,-0.6982,0.2399,-1566,681,-411,-2387,127,91,355,198,70,274.5067,72.4987,72.5701,1,0
0000994990,1,0.6817,0.0213,-0.6926,0.2348,-1553,679,-444,-2503,11,-75,132,306,10,277.6497,72.6114,76.5297,1,0
0000995011,1,0.6878,0.0248,-0.6862,0.2352,-1546,676,-480,-2879,-23,-379,-153,365,-23,281.1497,72.8877,79.7212,1,0
0000995032,1,0.6932,0.0346,-0.6788,0.2397,-1532,684,-509,-3107,359,-355,-435,458,-108,285.3192,73.2787,82.7111,1,0
0000995053,1,0.6989,0.0540,-0.6692,0.2464,-1523,673,-545,-2503,635,-203,-810,643,-386,291.1645,74.1755,86.3994,1,0
0000995074,1,0.7040,0.0828,-0.6581,0.2538,-1523,673,-545,-1431,427,-175,-996,713,-521,298.9114,75.6116,91.1521,1,0
0000995095,1,0.7101,0.1214,-0.6410,0.2647,-1513,668,-584,-1083,135,-527,-963,779,-352,311.6912,77.0827,99.7884,1,0
0000995116,1,0.7170,0.1438,-0.6240,0.2754,-1486,681,-634,-1319,-11,-819,-744,780,-1,322.5795,76.9155,107.8608,1,0
0000995137,1,0.7250,0.1572,-0.6060,0.2870,-1445,724,-679,-1911,127,-583,-618,717,191,330.9648,75.6883,114.0558,1,0
0000995158,1,0.7305,0.1708,-0.5892,0.3001,-1411,761,-702,-2199,255,-587,-769,614,84,337.1696,74.4327,117.8989,1,0
0000995179,1,0.7327,0.1892,-0.5737,0.3135,-1386,800,-708,-2267,219,-687,-930,590,-95,343.0373,73.5893,120.9360,1,0
0000995200,1,0.7319,0.2172,-0.5541,0.3317,-1386,800,-708,-2135,295,-559,-1073,554,-137,350.3239,72.7975,124.1017,1,0
0000995221,1,0.7282,0.2412,-0.5386,0.3485,-1364,838,-704,-2055,487,-463,-1161,482,-147,355.4665,72.2748,125.5451,1,0
0000995242,1,0.7219,0.2653,-0.5234,0.3667,-1348,879,-675,-1787,731,-347,-1242,414,-154,359.8436,71.8626,126.0256,1,0
0000995263,1,0.7133,0.2897,-0.5083,0.3859,-1339,918,-636,-1643,779,-283,-1276,363,-169,3.8172,71.5776,125.9278,1,0
0000995284,1,0.7031,0.3126,-0.4940,0.4048,-1335,954,-584,-1763,891,-179,-1198,287,-136,7.1412,71.4052,125.2788,1,0
0000995305,1,0.6902,0.3385,-0.4762,0.4270,-1326,986,-531,-1871,939,27,-1177,292,-117,10.8194,71.1579,124.2674,1,0
0000995326,1,0.6788,0.3583,-0.4615,0.4449,-1326,986,-531,-1923,983,0,-1192,255,-85,13.4256,70.9559,123.1077,1,0
0000995347,1,0.6666,0.3764,-0.4463,0.4635,-1323,1022,-473,-2027,1147,159,-1199,211,-30,15.4647,70.7106,121.3845,1,0
0000995368,1,0.6544,0.3925,-0.4310,0.4816,-1314,1052,-410,-2059,1211,331,-1117,212,0,17.1003,70.4198,119.4029,1,0
0000995389,1,0.6437,0.4069,-0.4156,0.4974,-1305,1084,-361,-1963,1123,407,-986,251,57,18.8261,70.0179,117.8521,1,0
0000995410,1,0.6321,0.4224,-0.3956,0.5153,-1291,1113,-314,-1839,1091,399,-925,264,106,20.9256,69.2922,116.1680,1,0
0000995431,1,0.6239,0.4328,-0.3794,0.5287,-1291,1113,-314,-1663,1079,451,-872,249,144,22.3756,68.5970,114.8093,1,0
0000995452,1,0.6166,0.4410,-0.3638,0.5412,-1277,1147,-272,-1627,1115,463,-763,195,197,23.4291,67.8329,113.3196,1,0
0000995473,1,0.6110,0.4455,-0.3503,0.5527,-1256,1176,-228,-1579,1243,383,-604,107,255,23.7343,67.0063,111.5747,1,0
0000995494,1,0.6074,0.4459,-0.3394,0.5630,-1234,1209,-193,-1539,1183,319,-391,-35,327,23.2123,66.1299,109.5756,1,0
0000995515,1,0.6057,0.4404,-0.3302,0.5746,-1208,1236,-160,-1595,1171,307,-231,-147,366,21.3606,64.9651,106.7176,1,0
0000995536,1,0.6060,0.4325,-0.3258,0.5826,-1183,1269,-128,-1619,1187,299,-111,-221,375,19.2801,64.0163,104.3762,1,0
0000995557,1,0.6073,0.4228,-0.3238,0.5895,-1183,1269,-128,-1551,1159,275,6,-287,365,16.9487,63.1036,102.1613,1,0
0000995578,1,0.6099,0.4109,-0.3245,0.5949,-1159,1290,-108,-1507,1155,235,136,-356,355,14.3069,62.2123,100.0888,1,0
0000995599,1,0.6138,0.3970,-0.3276,0.5986,-1131,1318,-95,-1543,1115,211,293,-416,357,11.4503,61.3345,98.2392,1,0
0000995620,1,0.6188,0.3814,-0.3322,0.6010,-1107,1338,-91,-1387,1195,231,338,-440,352,8.4828,60.4125,96.6179,1,0
0000995641,1,0.6256,0.3599,-0.3405,0.6027,-1084,1357,-90,-1387,1211,235,445,-537,324,4.4794,59.2922,94.6893,1,0
0000995662,1,0.6304,0.3415,-0.3500,0.6029,-1066,1370,-90,-1523,1199,227,478,-605,254,0.9346,58.5495,93.0844,1,0
0000995683,1,0.6347,0.3228,-0.3617,0.6018,-1066,1370,-90,-1631,1147,207,545,-638,195,357.2347,57.9511,91.5132,1,0
0000995704,1,0.6392,0.3039,-0.3752,0.5986,-1059,1376,-95,-1651,1123,183,629,-655,132,353.5070,57.5010,90.1849,1,0
0000995725,1,0.6451,0.2804,-0.3943,0.5914,-1057,1376,-114,-1543,1135,119,722,-670,35,348.8667,57.1845,88.8868,1,0
0000995746,1,0.6497,0.2608,-0.4125,0.5828,-1067,1365,-135,-1483,1163,91,834,-744,-38,344.8305,57.1485,87.9146,1,0
0000995767,1,0.6543,0.2404,-0.4331,0.5714,-1088,1348,-165,-1415,1175,87,937,-770,-106,340.4955,57.2996,87.0115,1,0
0000995788,1,0.6595,0.2194,-0.4543,0.5573,-1110,1323,-201,-1427,1203,7,1010,-751,-136,336.1606,57.5367,86.3745,1,0
0000995809,1,0.6646,0.1984,-0.4755,0.5412,-1110,1323,-201,-1503,1203,-79,1067,-746,-179,331.8566,57.8624,85.9126,1,0
0000995830,1,0.6693,0.1771,-0.4968,0.5234,-1140,1292,-238,-1719,1195,-219,1081,-751,-200,327.4745,58.2548,85.4846,1,0
0000995851,1,0.6743,0.1506,-0.5226,0.4995,-1175,1254,-274,-1815,1143,-247,1098,-716,-199,322.0156,58.7844,84.9946,1,0
0000995872,1,0.6786,0.1298,-0.5414,0.4791,-1205,1217,-318,-1875,1167,-243,1129,-631,-214,317.9738,59.2244,84.9303,1,0
0000995893,1,0.6836,0.1103,-0.5585,0.4567,-1242,1171,-361,-2023,1159,-491,1132,-550,-258,314.4038,59.8065,85.3313,1,0
0000995914,1,0.6882,0.0924,-0.5740,0.4340,-1274,1123,-400,-1859,1143,-707,1061,-486,-253,311.1191,60.4862,85.8378,1,0
0000995935,1,0.6924,0.0754,-0.5874,0.4122,-1274,1123,-400,-1723,1083,-647,1027,-429,-220,308.1791,61.1090,86.4592,1,0
0000995956,1,0.6991,0.0548,-0.6004,0.3844,-1302,1076,-443,-1579,859,-599,1091,-300,-217,305.3398,61.8387,87.9869,1,0
0000995977,1,0.7050,0.0383,-0.6099,0.3598,-1329,1023,-498,-1551,475,-759,1130,-329,-262,303.3171,62.5678,89.6291,1,0
0000995998,1,0.7082,0.0216,-0.6210,0.3351,-1360,965,-528,-1655,219,-743,1056,-469,-260,300.5687,63.3959,90.5210,1,0
0000996019,1,0.7083,0.0058,-0.6324,0.3136,-1390,916,-541,-1971,327,-391,826,-418,-183,297.2515,64.0961,90.4481,1,0
0000996040,1,0.7082,-0.0059,-0.6406,0.2967,-1410,877,-544,-2083,487,-307,561,-271,-212,294.7663,64.6708,90.4323,1,0
0000996061,1,0.7074,-0.0110,-0.6487,0.2806,-1410,877,-544,-2107,511,-287,314,-209,-330,292.6278,65.7141,90.1399,1,0
0000996082,1,0.7059,-0.0087,-0.6548,0.2699,-1438,838,-541,-2151,375,-183,156,-161,-408,291.2522,66.8910,89.5214,1,0
0000996103,1,0.7044,-0.0029,-0.6599,0.2614,-1457,800,-533,-2215,327,-63,9,-88,-408,290.2790,68.1535,88.8173,1,0
0000996124,1,0.7031,0.0059,-0.6635,0.2556,-1478,769,-530,-2335,271,87,-121,-9,-402,289.8518,69.3970,88.1886,1,0
0000996145,1,0.7023,0.0175,-0.6654,0.2523,-1489,741,-523,-2447,287,275,-309,97,-439,290.0859,70.6552,87.7680,1,0
0000996166,1,0.7020,0.0389,-0.6655,0.2505,-1506,710,-528,-2623,335,367,-471,228,-528,291.7378,72.5334,87.8468,1,0
0000996187,1,0.7025,0.0622,-0.6628,0.2515,-1506,710,-528,-2495,123,187,-707,328,-573,294.7934,74.2729,88.9116,1,0
0000996208,1,0.7011,0.0902,-0.6589,0.2572,-1513,688,-527,-2383,67,99,-956,311,-550,298.4985,76.0158,89.8409,1,0
0000996229,1,0.6977,0.1205,-0.6537,0.2672,-1522,678,-523,-2303,111,191,-1118,321,-480,302.6859,77.5660,90.6743,1,0
0000996250,1,0.6938,0.1515,-0.6459,0.2804,-1521,683,-510,-2219,239,299,-1229,412,-358,308.2512,78.8378,92.5156,1,0
0000996271,1,0.6891,0.1894,-0.6318,0.3003,-1519,702,-506,-2135,291,255,-1280,453,-248,317.6755,79.8722,96.9861,1,0
0000996292,1,0.6852,0.2176,-0.6178,0.3185,-1505,738,-495,-2099,251,235,-1281,462,-117,326.1259,80.1559,101.3937,1,0
0000996313,1,0.6815,0.2431,-0.6017,0.3381,-1505,738,-495,-2059,183,115,-1266,487,9,334.3930,79.9326,105.6637,1,0
0000996334,1,0.6783,0.2666,-0.5833,0.3586,-1486,781,-487,-2027,59,39,-1271,525,93,342.3044,79.2663,109.5826,1,0
0000996355,1,0.6744,0.2892,-0.5633,0.3798,-1460,836,-469,-2067,51,43,-1304,506,137,349.2377,78.3639,112.4515,1,0
0000996376,1,0.6663,0.3162,-0.5381,0.4081,-1436,889,-438,-2171,31,139,-1370,379,165,355.4005,77.1861,113.3616,1,0
0000996397,1,0.6564,0.3364,-0.5186,0.4325,-1418,944,-375,-2219,211,267,-1425,266,162,358.2979,76.3590,111.9026,1,0
0000996418,1,0.6432,0.3564,-0.4999,0.4575,-1404,991,-301,-2211,407,347,-1474,198,121,0.2729,75.7517,109.3703,1,0
0000996439,1,0.6282,0.3764,-0.4815,0.4815,-1404,991,-301,-2163,635,411,-1444,186,71,2.1016,75.3343,106.6908,1,0
0000996460,1,0.6129,0.3953,-0.4631,0.5036,-1400,1026,-221,-2143,803,335,-1371,184,78,4.0105,74.9814,104.2647,1,0
0000996481,1,0.5955,0.4145,-0.4400,0.5291,-1384,1056,-148,-2091,847,243,-1210,158,198,5.9333,74.2999,101.2478,1,0
0000996502,1,0.5842,0.4253,-0.4214,0.5479,-1367,1090,-81,-2091,791,191,-1052,152,294,7.0740,73.4350,98.9477,1,0
0000996523,1,0.5759,0.4330,-0.4029,0.5645,-1340,1130,-32,-2055,763,187,-896,181,370,8.3000,72.3207,97.2142,1,0
0000996544,1,0.5709,0.4376,-0.3848,0.5784,-1340,1130,-32,-1875,759,271,-687,179,433,9.6222,71.0076,96.1211,1,0
0000996565,1,0.5691,0.4385,-0.3689,0.5897,-1310,1166,4,-1815,615,339,-453,127,469,10.5763,69.5680,95.3229,1,0
0000996586,1,0.5691,0.4367,-0.3517,0.6014,-1272,1210,29,-1859,527,363,-368,90,466,11.2864,67.7587,94.4352,1,0
0000996607,1,0.5695,0.4340,-0.3395,0.6100,-1236,1243,51,-1939,531,411,-325,43,446,11.5255,66.3609,93.6149,1,0
0000996628,1,0.5696,0.4304,-0.3291,0.6180,-1199,1275,75,-1843,611,447,-261,-5,407,11.4458,65.0933,92.6547,1,0
0000996649,1,0.5706,0.4261,-0.3208,0.6244,-1172,1298,89,-1799,699,419,-154,-10,367,11.2432,63.9332,91.8695,1,0
0000996670,1,0.5733,0.4214,-0.3140,0.6287,-1138,1329,91,-1735,843,391,-31,-3,362,11.1536,62.8517,91.5489,1,0
0000996691,1,0.5786,0.4129,-0.3075,0.6326,-1138,1329,91,-1739,831,411,72,-82,381,10.7006,61.4253,91.2645,1,0
0000996712,1,0.5841,0.4040,-0.3049,0.6345,-1108,1355,87,-1691,803,351,204,-144,343,9.8917,60.3314,91.0224,1,0
0000996733,1,0.5902,0.3939,-0.3062,0.6346,-1079,1376,74,-1707,655,259,320,-241,248,8.6535,59.4726,90.8004,1,0
0000996754,1,0.5953,0.3823,-0.3121,0.6341,-1066,1386,69,-1719,579,223,362,-407,152,6.5929,58.9175,90.1094,1,0
0000996775,1,0.5985,0.3697,-0.3211,0.6341,-1054,1393,70,-1527,643,259,356,-481,108,3.8915,58.5612,88.8749,1,0
0000996796,1,0.6014,0.3561,-0.3316,0.6337,-1054,1393,70,-1527,559,315,455,-576,85,0.8708,58.2331,87.4907,1,0
0000996817,1,0.6059,0.3360,-0.3488,0.6311,-1051,1397,68,-1819,599,371,575,-665,21,356.4295,57.8675,85.6936,1,0
0000996838,1,0.6091,0.3193,-0.3669,0.6264,-1051,1394,57,-2295,699,443,671,-729,-113,352.3531,57.8920,84.1621,1,0
0000996859,1,0.6112,0.3039,-0.3883,0.6192,-1070,1381,46,-2443,919,291,689,-734,-271,347.9864,58.3074,82.5410,1,0
0000996880,1,0.6118,0.2909,-0.4110,0.6101,-1106,1352,32,-2071,1063,47,669,-699,-400,343.5495,59.0759,80.7919,1,0
0000996901,1,0.6126,0.2788,-0.4343,0.5986,-1145,1321,10,-1607,1207,-103,766,-659,-422,339.1134,59.9854,79.1766,1,0
0000996922,1,0.6171,0.2603,-0.4634,0.5802,-1145,1321,10,-1379,1023,-155,1027,-668,-352,333.5463,60.9320,77.7884,1,0
0000996943,1,0.6244,0.2392,-0.4875,0.5615,-1181,1285,-35,-1699,747,-147,1283,-740,-259,328.7770,61.3237,77.2644,1,0
0000996964,1,0.6330,0.2127,-0.5117,0.5406,-1206,1260,-90,-2195,555,-71,1402,-790,-162,323.6599,61.3798,76.9630,1,0
0000996985,1,0.6411,0.1847,-0.5337,0.5197,-1227,1233,-142,-2067,755,47,1344,-738,-62,318.7315,61.1961,76.8380,1,0
0000997006,1,0.6484,0.1575,-0.5525,0.4995,-1243,1209,-192,-1995,1067,175,1270,-662,-69,314.3348,60.9069,76.9654,1,0
0000997027,1,0.6564,0.1282,-0.5731,0.4736,-1271,1174,-242,-1899,1147,71,1174,-551,-168,309.6443,60.8996,77.4820,1,0
0000997048,1,0.6618,0.1057,-0.5885,0.4521,-1271,1174,-242,-1671,959,-123,1206,-581,-137,305.9921,61.0015,77.9056,1,0
0000997069,1,0.6667,0.0797,-0.6038,0.4297,-1294,1140,-283,-1667,743,-35,1317,-645,-57,302.0427,60.8716,78.3397,1,0
0000997090,1,0.6708,0.0512,-0.6182,0.4064,-1315,1104,-326,-1871,615,-95,1341,-667,-34,297.9672,60.5800,78.8832,1,0
0000997111,1,0.6736,0.0248,-0.6318,0.3828,-1337,1066,-355,-2131,643,-607,1164,-570,-140,294.0047,60.4649,79.3208,1,0
0000997132,1,0.6763,0.0005,-0.6451,0.3557,-1364,1022,-387,-2103,755,-815,936,-386,-197,290.1074,60.7917,79.9348,1,0
0000997153,1,0.6782,-0.0128,-0.6526,0.3377,-1386,984,-403,-1831,627,-735,744,-319,-199,287.8915,61.2232,80.4509,1,0
0000997174,1,0.6784,-0.0238,-0.6609,0.3199,-1386,984,-403,-1999,119,-783,719,-369,-318,285.3828,61.8324,80.4499,1,0
0000997195,1,0.6787,-0.0301,-0.6700,0.2992,-1422,928,-414,-2167,35,-923,638,-275,-545,282.8043,63.0610,80.2349,1,0
0000997216,1,0.6806,-0.0289,-0.6775,0.2774,-1459,859,-429,-2107,135,-791,471,-51,-737,280.9519,64.9810,80.2171,1,0
0000997237,1,0.6840,-0.0204,-0.6847,0.2508,-1497,776,-448,-1975,35,-663,275,-38,-817,279.4191,67.8849,80.3114,1,0
0000997258,1,0.6831,-0.0033,-0.6909,0.2368,-1535,701,-434,-2383,283,-459,-345,-10,-862,277.7825,70.4393,78.4999,1,0
0000997279,1,0.6805,0.0263,-0.6936,0.2349,-1561,652,-421,-2599,559,-427,-951,211,-802,277.1890,73.0053,75.6665,1,0
0000997300,1,0.6785,0.0634,-0.6905,0.2426,-1561,652,-421,-2651,691,-363,-1303,413,-661,278.7704,75.4012,73.5700,1,0
0000997321,1,0.6775,0.1022,-0.6813,0.2576,-1565,637,-418,-2555,1043,-123,-1465,584,-432,283.4549,77.3827,73.7950,1,0
0000997342,1,0.6782,0.1463,-0.6627,0.2818,-1558,652,-432,-2283,631,-47,-1424,687,-157,294.2466,78.9309,78.8367,1,0
0000997363,1,0.6794,0.1780,-0.6443,0.3026,-1534,687,-447,-2247,331,-83,-1415,733,-72,305.6737,79.5036,85.7646,1,0
0000997384,1,0.6792,0.2101,-0.6240,0.3242,-1511,728,-461,-2139,91,159,-1503,722,-57,318.0940,79.7114,93.5103,1,0
0000997405,1,0.6761,0.2425,-0.6028,0.3474,-1488,775,-449,-1975,295,423,-1588,658,-42,329.6983,79.6126,100.1732,1,0
0000997426,1,0.6700,0.2748,-0.5807,0.3720,-1488,775,-449,-1899,419,527,-1674,612,-17,339.9337,79.2857,105.2384,1,0
0000997447,1,0.6593,0.3143,-0.5510,0.4037,-1471,823,-427,-1903,739,563,-1679,582,17,351.1211,78.5967,109.7644,1,0
0000997468,1,0.6499,0.3429,-0.5270,0.4271,-1447,873,-394,-1855,731,527,-1543,551,36,358.7959,77.9052,112.4073,1,0
0000997489,1,0.6405,0.3675,-0.5040,0.4479,-1432,916,-361,-1775,715,415,-1390,476,76,4.9904,77.1331,114.0514,1,0
0000997510,1,0.6309,0.3875,-0.4830,0.4674,-1413,961,-314,-1751,727,351,-1251,335,128,9.1516,76.3434,114.1393,1,0
0000997531,1,0.6208,0.4030,-0.4642,0.4866,-1399,999,-262,-1807,739,367,-1146,200,186,11.2664,75.5725,112.5740,1,0
0000997552,1,0.6073,0.4188,-0.4423,0.5101,-1399,999,-262,-1847,795,387,-1101,135,184,12.5614,74.6811,109.5450,1,0
0000997573,1,0.5960,0.4295,-0.4262,0.5279,-1382,1035,-193,-1771,983,355,-1026,88,184,13.0210,74.0495,106.7673,1,0
0000997594,1,0.5854,0.4376,-0.4116,0.5445,-1372,1064,-134,-1723,987,415,-893,38,210,12.9722,73.4146,103.8354,1,0
0000997615,1,0.5770,0.4425,-0.3985,0.5590,-1353,1096,-78,-1723,1023,415,-713,11,270,12.6308,72.6675,101.1232,1,0
0000997636,1,0.5720,0.4438,-0.3869,0.5711,-1332,1127,-42,-1723,983,507,-457,6,337,12.1138,71.7228,98.8576,1,0
0000997657,1,0.5700,0.4419,-0.3748,0.5825,-1303,1158,-17,-1727,1047,499,-278,-12,355,11.5490,70.4076,96.9174,1,0
0000997678,1,0.5708,0.4377,-0.3677,0.5894,-1303,1158,-17,-1711,959,475,-156,-52,343,10.8291,69.3450,95.6624,1,0
0000997699,1,0.5719,0.4328,-0.3620,0.5954,-1282,1185,0,-1635,1067,475,-111,-68,317,9.9899,68.3595,94.4836,1,0
0000997720,1,0.5741,0.4277,-0.3575,0.5997,-1255,1211,10,-1495,1183,499,0,-53,298,9.3502,67.4447,93.7538,1,0
0000997741,1,0.5779,0.4209,-0.3554,0.6021,-1237,1229,7,-1439,1199,571,145,-129,267,8.4715,66.5880,93.2222,1,0
0000997762,1,0.5824,0.4114,-0.3580,0.6028,-1219,1248,9,-1543,1123,483,339,-306,186,6.7035,65.9168,92.3797,1,0
0000997783,1,0.5877,0.3966,-0.3670,0.6021,-1215,1254,5,-1535,1103,371,407,-400,113,3.3431,65.3703,90.7587,1,0
0000997804,1,0.5909,0.3839,-0.3773,0.6009,-1215,1254,5,-1547,1059,271,442,-486,55,0.0401,65.1318,89.0664,1,0
0000997825,1,0.5937,0.3698,-0.3903,0.5986,-1212,1257,10,-1547,1003,371,543,-552,4,356.1844,64.9939,87.0997,1,0
0000997846,1,0.5975,0.3541,-0.4058,0.5941,-1217,1253,5,-1543,1099,359,727,-623,-49,351.9897,64.9144,85.2302,1,0
0000997867,1,0.6020,0.3362,-0.4246,0.5868,-1222,1247,-3,-1631,1079,287,873,-701,-88,347.2487,64.9193,83.3304,1,0
0000997888,1,0.6085,0.3102,-0.4508,0.5747,-1236,1234,-22,-1867,1119,179,982,-744,-81,340.6834,64.8480,80.9417,1,0
0000997909,1,0.6141,0.2873,-0.4725,0.5631,-1245,1223,-43,-1915,1075,43,1050,-772,-69,335.2342,64.6700,79.1403,1,0
0000997930,1,0.6199,0.2624,-0.4941,0.5502,-1245,1223,-43,-1823,967,43,1126,-784,-44,329.7140,64.3331,77.5037,1,0
0000997951,1,0.6265,0.2360,-0.5153,0.5349,-1259,1210,-76,-1795,735,139,1251,-750,-55,324.4391,63.9338,76.3843,1,0
0000997972,1,0.6337,0.2085,-0.5363,0.5170,-1268,1195,-114,-1899,559,119,1318,-762,-66,319.3185,63.5563,75.7156,1,0
0000997993,1,0.6414,0.1726,-0.5621,0.4928,-1283,1176,-154,-1987,279,135,1343,-785,-25,312.8421,63.0161,74.9668,1,0
0000998014,1,0.6470,0.1416,-0.5814,0.4726,-1292,1156,-193,-2123,411,163,1381,-786,-4,307.7571,62.3895,74.6309,1,0
0000998035,1,0.6516,0.1126,-0.5998,0.4506,-1292,1156,-193,-2011,531,147,1324,-708,-117,302.9431,62.0219,74.4805,1,0
0000998056,1,0.6543,0.0887,-0.6172,0.4279,-1319,1124,-228,-1963,423,39,1146,-665,-253,298.3511,62.0759,74.1339,1,0
0000998077,1,0.6533,0.0709,-0.6347,0.4067,-1353,1081,-242,-2027,347,-27,818,-671,-404,293.5149,62.4830,72.8272,1,0
0000998098,1,0.6487,0.0562,-0.6559,0.3820,-1396,1027,-235,-2011,503,83,720,-581,-490,287.3005,63.3520,70.1640,1,0
0000998119,1,0.6457,0.0479,-0.6714,0.3606,-1441,968,-234,-2075,499,103,712,-507,-599,282.5206,64.3696,68.0584,1,0
0000998140,1,0.6421,0.0429,-0.6868,0.3380,-1488,892,-223,-2195,443,219,609,-474,-688,277.3792,65.6317,65.3977,1,0
0000998161,1,0.6385,0.0426,-0.6999,0.3172,-1527,828,-220,-2447,299,407,410,-307,-688,272.4303,67.0471,62.3384,1,0
0000998182,1,0.6370,0.0463,-0.7084,0.3003,-1527,828,-220,-2403,239,347,214,-54,-581,268.7462,68.4933,59.8564,1,0
0000998203,1,0.6371,0.0546,-0.7144,0.2841,-1556,767,-227,-2327,155,159,75,7,-535,265.4463,70.2791,57.3081,1,0
0000998224,1,0.6366,0.0643,-0.7180,0.2742,-1579,720,-232,-2251,-55,35,-81,40,-542,262.8265,71.6788,54.7703,1,0
0000998245,1,0.6359,0.0783,-0.7199,0.2668,-1599,671,-236,-2235,-315,-11,-278,136,-557,260.2505,73.2237,51.6909,1,0
0000998266,1,0.6354,0.0977,-0.7195,0.2627,-1616,626,-243,-2243,-379,7,-520,235,-568,257.8594,74.9537,48.0705,1,0
0000998287,1,0.6344,0.1224,-0.7166,0.2625,-1616,626,-243,-2259,-455,79,-868,337,-553,255.5055,76.8079,43.7007,1,0
0000998308,1,0.6320,0.1610,-0.7086,0.2694,-1626,589,-255,-2271,-455,163,-1144,422,-497,252.5580,79.2288,36.9586,1,0
0000998329,1,0.6290,0.1968,-0.6977,0.2807,-1632,566,-265,-2375,-431,227,-1416,500,-433,250.4842,81.2048,30.9035,1,0
0000998350,1,0.6249,0.2359,-0.6828,0.2961,-1632,559,-275,-2459,-315,275,-1596,566,-356,248.2349,83.2281,23.9662,1,0
0000998371,1,0.6199,0.2748,-0.6647,0.3136,-1630,564,-288,-2475,-167,303,-1630,573,-269,245.5345,85.1942,16.3179,1,0
0000998392,1,0.6142,0.3117,-0.6447,0.3317,-1619,580,-297,-2543,-51,511,-1606,580,-197,240.3577,87.0411,6.2195,1,0
0000998413,1,0.6067,0.3553,-0.6168,0.3538,-1619,580,-297,-2459,-11,595,-1579,626,-134,201.2947,89.1705,-38.8920,1,0
0000998434,1,0.6014,0.3879,-0.5916,0.3712,-1609,601,-316,-2287,67,587,-1544,660,-35,92.2548,88.4310,-152.6840,1,0
0000998455,1,0.5974,0.4159,-0.5655,0.3877,-1590,638,-334,-2103,187,479,-1343,648,102,76.0861,86.5531,-173.2029,1,0
0000998476,1,0.5965,0.4362,-0.5405,0.4022,-1570,684,-355,-1991,131,283,-1061,594,252,67.7166,84.6942,174.9063,1,0
0000998497,1,0.5979,0.4502,-0.5176,0.4146,-1539,738,-371,-1967,3,111,-813,494,348,61.6753,82.8738,166.1071,1,0
0000998518,1,0.5994,0.4624,-0.4919,0.4300,-1514,792,-375,-1967,-175,-19,-795,363,373,56.0110,80.8906,157.4656,1,0
0000998539,1,0.5980,0.4697,-0.4730,0.4449,-1514,792,-375,-1875,-187,-91,-845,192,399,51.7336,79.6619,150.7416,1,0
0000998560,1,0.5934,0.4757,-0.4554,0.4628,-1486,851,-340,-1915,-123,-147,-937,45,402,47.1546,78.7551,143.5039,1,0
0000998581,1,0.5855,0.4810,-0.4386,0.4832,-1468,906,-286,-2003,115,-119,-1004,-69,375,42.4256,78.0771,135.8739,1,0
0000998602,1,0.5759,0.4855,-0.4226,0.5040,-1447,957,-209,-2095,271,-59,-956,-127,361,37.8276,77.4662,128.3490,1,0
0000998623,1,0.5642,0.4887,-0.4039,0.5289,-1430,1002,-140,-2123,323,-19,-897,-140,393,32.3689,76.5782,119.5083,1,0
0000998644,1,0.5559,0.4896,-0.3885,0.5480,-1403,1049,-65,-2059,471,31,-839,-126,442,28.4789,75.6006,113.0944,1,0
0000998665,1,0.5498,0.4888,-0.3728,0.5655,-1403,1049,-65,-1995,487,99,-723,-82,511,25.3853,74.3277,107.7615,1,0
0000998686,1,0.5469,0.4859,-0.3572,0.5806,-1369,1096,-10,-1847,451,103,-551,-44,572,23.1771,72.7554,103.7557,1,0
0000998707,1,0.5473,0.4808,-0.3428,0.5931,-1325,1148,30,-1803,355,131,-341,-44,609,21.5704,71.0099,100.8777,1,0
0000998728,1,0.5498,0.4738,-0.3302,0.6035,-1283,1194,54,-1835,351,171,-233,-60,608,20.1897,69.2148,98.6819,1,0
0000998749,1,0.5540,0.4640,-0.3163,0.6146,-1236,1241,78,-1871,407,271,-181,-74,565,18.7450,67.0439,96.5457,1,0
0000998770,1,0.5571,0.4560,-0.3075,0.6222,-1201,1275,95,-1875,535,327,-119,-120,481,17.6004,65.5151,95.0530,1,0
0000998791,1,0.5600,0.4473,-0.3020,0.6285,-1201,1275,95,-2055,619,343,-16,-185,417,16.2099,64.2393,93.6171,1,0
0000998812,1,0.5637,0.4375,-0.2994,0.6334,-1167,1303,112,-2375,967,423,113,-245,345,14.5835,63.0981,92.3132,1,0
0000998833,1,0.5671,0.4275,-0.2999,0.6369,-1141,1322,119,-2303,1215,431,142,-291,250,12.7519,62.2171,91.0830,1,0
0000998854,1,0.5698,0.4159,-0.3050,0.6398,-1125,1337,129,-1879,1379,427,218,-309,119,10.1443,61.6076,89.4386,1,0
0000998875,1,0.5743,0.4066,-0.3102,0.6393,-1115,1347,118,-1311,1363,371,358,-268,170,8.4014,61.1703,88.8464,1,0
0000998896,1,0.5819,0.3934,-0.3149,0.6383,-1082,1372,100,-1131,1211,395,467,-348,325,6.4673,60.3063,88.4658,1,0
0000998917,1,0.5922,0.3751,-0.3203,0.6372,-1082,1372,100,-1163,1155,391,692,-492,460,4.0050,59.0237,88.0732,1,0
0000998938,1,0.6052,0.3519,-0.3284,0.6342,-1045,1399,69,-1367,1051,419,842,-568,457,1.0007,57.5313,87.8677,1,0
0000998959,1,0.6224,0.3198,-0.3437,0.6263,-1007,1423,21,-1451,971,471,1011,-680,345,356.6808,55.9377,87.8763,1,0
0000998980,1,0.6352,0.2933,-0.3598,0.6173,-987,1432,-35,-1647,863,475,1059,-756,245,352.8203,55.0003,87.8892,1,0
0000999001,1,0.6457,0.2671,-0.3780,0.6074,-976,1437,-82,-1803,855,307,1022,-804,159,348.6921,54.3480,87.6844,1,0
0000999022,1,0.6536,0.2422,-0.3970,0.5971,-981,1428,-123,-1711,1003,11,937,-815,41,344.4886,53.9257,87.2489,1,0
0000999043,1,0.6595,0.2194,-0.4169,0.5858,-981,1428,-123,-1595,1103,-127,953,-810,-50,340.2964,53.7967,86.7024,1,0
0000999064,1,0.6664,0.1912,-0.4435,0.5681,-999,1412,-161,-1391,1163,-235,1058,-837,-117,334.9682,53.9302,86.2179,1,0
0000999085,1,0.6723,0.1669,-0.4665,0.5500,-1027,1384,-215,-1355,1135,-175,1196,-882,-154,330.4413,54.1804,86.0514,1,0
0000999106,1,0.6783,0.1413,-0.4901,0.5289,-1062,1350,-269,-1731,1023,-139,1277,-889,-189,325.7375,54.5203,86.0658,1,0
0000999127,1,0.6837,0.1164,-0.5130,0.5058,-1105,1303,-326,-1787,987,-259,1267,-832,-233,321.1368,55.0054,86.1918,1,0
0000999148,1,0.6883,0.0936,-0.5342,0.4819,-1150,1253,-369,-1639,987,-295,1182,-747,-300,316.8615,55.6418,86.4427,1,0
0000999169,1,0.6915,0.0691,-0.5601,0.4510,-1150,1253,-369,-1467,775,-395,1134,-772,-409,311.5542,56.8134,86.4204,1,0
0000999190,1,0.6923,0.0519,-0.5818,0.4237,-1206,1187,-400,-1695,607,-463,1138,-754,-545,307.0293,58.1592,86.0864,1,0
0000999211,1,0.6920,0.0390,-0.6029,0.3951,-1273,1112,-424,-1867,683,-559,997,-690,-664,302.5796,59.9136,85.5152,1,0
0000999232,1,0.6889,0.0302,-0.6236,0.3684,-1345,1025,-418,-1743,803,-671,823,-719,-689,297.8168,61.8150,84.0289,1,0
0000999253,1,0.6841,0.0210,-0.6439,0.3421,-1410,945,-411,-2071,1047,-431,900,-735,-649,292.4260,63.5437,81.8435,1,0
0000999274,1,0.6802,0.0076,-0.6664,0.3051,-1466,851,-408,-2123,1087,-435,1034,-601,-708,285.7221,65.6828,79.5762,1,0
0000999295,1,0.6782,-0.0013,-0.6821,0.2734,-1466,851,-408,-1975,843,-459,976,-515,-763,280.4972,67.5951,77.8772,1,0
0000999316,1,0.6766,-0.0075,-0.6947,0.2441,-1521,754,-410,-1951,631,-539,839,-385,-686,275.6679,69.4524,76.0895,1,0
0000999337,1,0.6764,-0.0127,-0.7031,0.2188,-1554,674,-413,-2151,439,-443,722,-201,-564,271.9165,71.0364,74.9221,1,0
0000999358,1,0.6766,-0.0144,-0.7088,0.1990,-1581,608,-415,-2339,435,-699,430,-184,-514,269.0147,72.4496,73.8378,1,0
0000999379,1,0.6735,-0.0093,-0.7163,0.1825,-1600,562,-396,-2471,463,-539,70,-160,-465,264.5350,74.0290,70.3319,1,0
0000999400,1,0.6721,-0.0020,-0.7191,0.1764,-1611,535,-396,-2475,723,-467,-106,-15,-297,262.3797,75.0048,68.0859,1,0
0000999421,1,0.6734,0.0051,-0.7181,0.1757,-1611,535,-396,-2483,451,-179,-215,158,-147,262.7185,75.6730,67.9122,1,0
0000999442,1,0.6757,0.0150,-0.7149,0.1792,-1608,532,-403,-2311,7,-311,-420,236,-147,264.5186,76.2938,68.6188,1,0
0000999463,1,0.6790,0.0309,-0.7097,0.1851,-1605,524,-427,-1923,-375,-411,-680,407,-261,267.5679,77.2321,69.8896,1,0
0000999484,1,0.6833,0.0584,-0.7008,0.1964,-1592,526,-449,-1799,-143,-51,-935,397,-257,273.2288,78.7116,72.3652,1,0
0000999505,1,0.6830,0.0847,-0.6937,0.2123,-1591,544,-449,-1887,215,-3,-1223,306,-157,277.4065,79.6110,73.0537,1,0
0000999526,1,0.6806,0.1130,-0.6848,0.2347,-1577,588,-436,-2091,575,43,-1429,326,-42,282.2840,80.1262,73.7090,1,0
0000999547,1,0.6772,0.1424,-0.6732,0.2608,-1577,588,-436,-2119,651,123,-1531,381,39,288.5652,80.3901,75.3153,1,0
0000999568,1,0.6741,0.1708,-0.6587,0.2874,-1562,639,-426,-2031,619,155,-1467,459,88,296.4798,80.4595,78.5324,1,0
0000999589,1,0.6701,0.2048,-0.6384,0.3187,-1541,693,-416,-1987,695,271,-1424,472,79,307.3625,80.4077,83.7505,1,0
0000999610,1,0.6660,0.2308,-0.6215,0.3419,-1524,738,-406,-1923,695,403,-1371,449,68,315.8220,80.2913,87.8566,1,0
0000999631,1,0.6606,0.2553,-0.6049,0.3641,-1508,783,-380,-1863,783,387,-1313,393,76,323.1858,80.0806,91.0296,1,0
0000999652,1,0.6541,0.2771,-0.5893,0.3849,-1497,821,-347,-1895,879,335,-1215,297,88,329.0289,79.7890,92.9650,1,0
0000999673,1,0.6465,0.2948,-0.5759,0.4043,-1497,821,-347,-1927,947,343,-1057,172,110,332.5594,79.4324,93.0326,1,0
0000999694,1,0.6373,0.3114,-0.5622,0.4252,-1485,858,-307,-1899,1031,335,-840,108,133,334.9887,78.9348,91.8810,1,0
0000999715,1,0.6312,0.3213,-0.5525,0.4393,-1474,885,-274,-1855,1003,211,-723,95,142,336.4418,78.4909,90.9972,1,0
0000999736,1,0.6258,0.3295,-0.5432,0.4525,-1464,915,-239,-1891,907,75,-673,76,177,337.6511,77.9771,90.0882,1,0
0000999757,1,0.6203,0.3362,-0.5337,0.4661,-1449,947,-202,-1935,827,11,-670,46,237,338.4884,77.3237,88.8706,1,0
0000999778,1,0.6148,0.3419,-0.5234,0.4808,-1449,947,-202,-1991,707,-7,-698,53,291,339.2378,76.4947,87.5161,1,0
0000999799,1,0.6093,0.3473,-0.5121,0.4959,-1432,988,-162,-1991,659,-7,-693,50,314,340.1299,75.5814,86.2495,1,0
0000999820,1,0.6025,0.3529,-0.4983,0.5140,-1410,1022,-119,-1815,747,123,-625,39,301,341.1445,74.4087,84.6997,1,0
0000999841,1,0.5982,0.3560,-0.4884,0.5262,-1391,1055,-86,-1707,715,303,-506,46,283,341.9198,73.5343,83.7738,1,0
0000999862,1,0.5953,0.3581,-0.4789,0.5366,-1369,1085,-57,-1715,739,307,-434,69,304,342.8889,72.6685,83.3048,1,0
0000999883,1,0.5941,0.3588,-0.4691,0.5461,-1347,1118,-42,-1775,723,395,-332,104,358,344.1065,71.6814,83.3024,1,0
0000999904,1,0.5943,0.3586,-0.4590,0.5545,-1347,1118,-42,-1739,799,595,-293,114,362,345.5469,70.6164,83.7024,1,0
0000999925,1,0.5951,0.3575,-0.4476,0.5637,-1317,1148,-26,-1751,827,703,-216,85,325,347.0393,69.3505,84.1162,1,0
0000999946,1,0.5964,0.3558,-0.4403,0.5690,-1298,1178,-19,-1787,843,767,-128,87,289,347.9573,68.4621,84.4837,1,0
0000999967,1,0.5990,0.3540,-0.4338,0.5725,-1269,1202,-17,-1831,875,719,-49,108,267,348.9800,67.6578,85.1858,1,0
0000999988,1,0.6027,0.3512,-0.4281,0.5745,-1250,1222,-32,-1935,855,635,69,94,270,349.9568,66.8734,86.1044,1,0
0001000009,1,0.6077,0.3469,-0.4237,0.5751,-1225,1244,-47,-2039,715,515,158,35,258,350.6626,66.0725,87.0743,1,0
0001000030,1,0.6138,0.3392,-0.4215,0.5749,-1225,1244,-47,-1979,667,423,213,-60,228,350.6429,65.1541,87.7584,1,0
0001000051,1,0.6183,0.3315,-0.4225,0.5738,-1211,1260,-62,-1915,679,347,291,-116,186,349.9659,64.5439,87.9303,1,0
0001000072,1,0.6233,0.3229,-0.4252,0.5714,-1192,1274,-81,-1711,631,251,358,-155,152,349.0396,64.0298,88.1146,1,0
0001000093,1,0.6281,0.3128,-0.4301,0.5680,-1185,1282,-101,-1655,551,175,442,-258,136,347.5794,63.5914,88.0392,1,0
0001000114,1,0.6331,0.2996,-0.4379,0.5636,-1176,1286,-121,-1755,479,159,593,-401,128,345.3461,63.1467,87.6081,1,0
0001000135,1,0.6395,0.2792,-0.4517,0.5559,-1176,1287,-141,-1807,335,103,704,-510,96,341.5846,62.6473,86.7336,1,0
0001000156,1,0.6437,0.2610,-0.4662,0.5480,-1176,1287,-141,-1923,247,39,768,-610,35,337.8245,62.3905,85.6461,1,0
0001000177,1,0.6471,0.2412,-0.4829,0.5384,-1183,1276,-160,-2067,259,47,844,-681,-19,333.5103,62.2142,84.3105,1,0
0001000198,1,0.6503,0.2210,-0.5010,0.5265,-1194,1261,-180,-2275,371,-7,923,-677,-62,329.0313,62.1706,83.0474,1,0
0001000219,1,0.6539,0.2003,-0.5193,0.5125,-1218,1236,-208,-2315,411,-43,973,-671,-123,324.6155,62.1784,82.0522,1,0
0001000240,1,0.6571,0.1754,-0.5429,0.4927,-1241,1210,-231,-2327,351,-195,974,-691,-190,318.9011,62.4132,80.6852,1,0
0001000261,1,0.6580,0.1566,-0.5626,0.4755,-1275,1170,-248,-2335,359,-295,955,-709,-256,314.0364,62.7759,79.2814,1,0
0001000282,1,0.6578,0.1377,-0.5823,0.4575,-1275,1170,-248,-2243,439,-199,955,-730,-273,308.9229,63.1324,77.6418,1,0
0001000303,1,0.6563,0.1205,-0.6019,0.4386,-1311,1129,-252,-2339,587,-35,913,-702,-361,303.6640,63.6177,75.7464,1,0
0001000324,1,0.6548,0.1053,-0.6211,0.4176,-1358,1076,-262,-2395,711,0,939,-622,-484,298.4529,64.3300,73.8831,1,0
0001000345,1,0.6530,0.0894,-0.6440,0.3883,-1404,1012,-268,-2295,683,51,904,-562,-565,291.9435,65.5920,71.5056,1,0
0001000366,1,0.6516,0.0791,-0.6609,0.3639,-1453,939,-275,-2183,587,91,875,-493,-588,286.7821,66.7506,69.4763,1,0
0001000387,1,0.6503,0.0699,-0.6760,0.3395,-1496,869,-277,-2019,439,-127,847,-443,-593,281.6971,67.9188,67.3952,1,0
0001000408,1,0.6482,0.0612,-0.6904,0.3154,-1496,869,-277,-2027,411,-231,798,-460,-582,276.2948,69.0090,64.8681,1,0
0001000429,1,0.6454,0.0533,-0.7037,0.2923,-1539,796,-272,-2231,435,-11,732,-383,-548,270.6656,69.9606,61.9296,1,0
0001000450,1,0.6438,0.0467,-0.7161,0.2656,-1568,732,-271,-2011,275,119,575,-193,-558,264.6747,71.2350,58.8108,1,0
0001000471,1,0.6440,0.0490,-0.7222,0.2476,-1598,663,-276,-1983,-15,-39,260,-39,-622,260.7692,72.6388,56.2732,1,0
0001000492,1,0.6441,0.0597,-0.7255,0.2352,-1618,607,-282,-2159,-263,-95,-141,93,-616,257.2655,74.2762,52.9570,1,0
0001000513,1,0.6438,0.0779,-0.7256,0.2301,-1633,561,-288,-2315,-315,-75,-489,200,-553,254.3934,75.9679,49.0422,1,0
0001000534,1,0.6440,0.1014,-0.7222,0.2309,-1633,561,-288,-2215,-215,147,-858,373,-465,252.5420,77.7189,45.1975,1,0
0001000555,1,0.6450,0.1371,-0.7124,0.2403,-1634,534,-304,-2071,-227,227,-1076,486,-354,252.3875,79.9993,41.3097,1,0
0001000576,1,0.6470,0.1664,-0.7003,0.2518,-1632,530,-335,-2135,-447,291,-1103,591,-226,255.2752,81.8354,40.7857,1,0
0001000597,1,0.6500,0.1936,-0.6854,0.2652,-1618,542,-370,-2203,-455,447,-1115,614,-108,262.6919,83.5226,44.7730,1,0
0001000618,1,0.6515,0.2200,-0.6696,0.2806,-1604,569,-394,-2275,-255,455,-1201,567,-56,274.1618,84.8770,52.6522,1,0
0001000639,1,0.6512,0.2472,-0.6523,0.2989,-1586,605,-404,-2335,-211,387,-1348,518,7,291.5432,85.8099,66.0799,1,0
0001000660,1,0.6469,0.2813,-0.6295,0.3259,-1586,605,-404,-2871,219,431,-1451,426,71,316.8005,86.1234,85.9185,1,0
0001000681,1,0.6412,0.3069,-0.6104,0.3496,-1570,653,-389,-3139,771,515,-1456,388,134,333.4546,85.7321,98.0990,1,0
0001000702,1,0.6356,0.3315,-0.5892,0.3729,-1552,701,-374,-2683,999,435,-1422,486,166,348.1616,84.9594,108.3496,1,0
0001000723,1,0.6332,0.3536,-0.5657,0.3923,-1527,754,-378,-1727,1119,163,-1164,624,232,2.0717,83.6897,118.2935,1,0
0001000744,1,0.6359,0.3680,-0.5429,0.4067,-1492,812,-405,-1283,607,-151,-668,540,459,10.7328,81.8344,124.1101,1,0
0001000765,1,0.6416,0.3716,-0.5237,0.4194,-1449,882,-406,-1343,167,-159,-467,367,610,12.1082,79.6757,123.7671,1,0
0001000786,1,0.6471,0.3695,-0.5032,0.4378,-1449,882,-406,-1579,59,7,-552,191,642,9.6621,77.0650,119.5380,1,0
0001000807,1,0.6458,0.3708,-0.4868,0.4566,-1407,948,-384,-1667,219,135,-849,109,526,7.8078,75.3186,115.5035,1,0
0001000828,1,0.6381,0.3768,-0.4711,0.4784,-1377,1010,-324,-1763,747,179,-1043,-10,356,6.3130,74.1049,111.0495,1,0
0001000849,1,0.6266,0.3829,-0.4596,0.4996,-1365,1050,-246,-1851,1187,223,-858,-209,228,4.1528,73.4336,105.9691,1,0
0001000870,1,0.6156,0.3849,-0.4526,0.5177,-1353,1084,-167,-1883,1335,331,-625,-300,258,1.0203,72.8977,100.6304,1,0
0001000891,1,0.6052,0.3814,-0.4474,0.5368,-1340,1111,-106,-1863,1307,395,-444,-321,296,356.5419,71.9809,94.3436,1,0
0001000912,1,0.5999,0.3768,-0.4436,0.5490,-1340,1111,-106,-1727,1211,499,-316,-229,319,353.8148,71.0680,90.6619,1,0
0001000933,1,0.5973,0.3723,-0.4383,0.5590,-1317,1141,-65,-1623,1199,495,-270,-116,346,352.3775,70.0286,88.4494,1,0
0001000954,1,0.5965,0.3681,-0.4315,0.5678,-1292,1169,-39,-1551,1135,435,-201,-37,392,351.8750,68.8924,87.2431,1,0
0001000975,1,0.5976,0.3632,-0.4241,0.5754,-1261,1208,-24,-1555,1147,439,-119,-1,411,351.8399,67.6506,86.6928,1,0
0001000996,1,0.6011,0.3561,-0.4153,0.5826,-1231,1233,-18,-1551,1163,495,-32,1,401,352.0725,66.0859,86.6242,1,0
0001001017,1,0.6048,0.3494,-0.4097,0.5867,-1199,1265,-20,-1527,1191,511,49,-26,374,352.1375,64.9076,86.7398,1,0
0001001038,1,0.6088,0.3419,-0.4061,0.5895,-1199,1265,-20,-1603,1175,423,117,-76,319,351.8581,63.8419,86.7720,1,0
0001001059,1,0.6129,0.3335,-0.4051,0.5908,-1177,1283,-27,-1587,1131,411,217,-139,265,351.1780,62.9537,86.7024,1,0
0001001080,1,0.6174,0.3239,-0.4067,0.5903,-1158,1299,-35,-1491,1079,355,330,-208,200,350.1025,62.2036,86.5870,1,0
0001001101,1,0.6235,0.3106,-0.4121,0.5873,-1146,1306,-55,-1475,951,335,422,-252,140,348.3122,61.4917,86.4536,1,0
0001001122,1,0.6283,0.2995,-0.4189,0.5831,-1139,1311,-72,-1447,927,311,474,-304,80,346.5595,61.1247,86.3094,1,0
0001001143,1,0.6327,0.2875,-0.4281,0.5776,-1145,1305,-95,-1551,955,315,550,-370,21,344.3961,60.9249,85.9987,1,0
0001001164,1,0.6373,0.2744,-0.4396,0.5704,-1145,1305,-95,-1619,1027,339,637,-424,-20,341.8589,60.8482,85.6265,1,0
0001001185,1,0.6420,0.2603,-0.4526,0.5615,-1151,1299,-118,-1659,1051,331,719,-453,-56,339.0480,60.8607,85.2564,1,0
0001001206,1,0.6483,0.2421,-0.4698,0.5481,-1165,1283,-150,-1591,1099,267,778,-437,-91,335.5109,60.9861,85.0120,1,0
0001001227,1,0.6540,0.2271,-0.4844,0.5349,-1180,1265,-190,-1611,1059,155,875,-450,-130,332.6624,61.2243,85.0710,1,0
0001001248,1,0.6602,0.2106,-0.5000,0.5194,-1204,1236,-232,-1663,1003,63,975,-485,-141,329.6028,61.5206,85.2515,1,0
0001001269,1,0.6666,0.1923,-0.5162,0.5022,-1222,1205,-276,-1651,903,-63,1044,-510,-128,326.3088,61.8019,85.4720,1,0
0001001290,1,0.6727,0.1730,-0.5323,0.4840,-1222,1205,-276,-1679,891,-107,1083,-525,-151,322.8932,62.0773,85.6961,1,0
0001001311,1,0.6795,0.1489,-0.5530,0.4586,-1249,1171,-321,-1759,819,-195,1121,-540,-221,318.4470,62.6333,85.9703,1,0
0001001332,1,0.6832,0.1303,-0.5706,0.4367,-1282,1122,-361,-1851,699,-435,1088,-591,-282,314.5108,63.3074,85.8395,1,0
0001001353,1,0.6844,0.1127,-0.5887,0.4151,-1321,1071,-378,-1863,711,-515,1015,-641,-312,310.0728,64.0794,85.0344,1,0
0001001374,1,0.6842,0.0965,-0.6070,0.3926,-1367,1008,-394,-1931,803,-515,1022,-617,-410,305.3703,65.0062,83.8749,1,0
0001001395,1,0.6839,0.0827,-0.6249,0.3672,-1417,934,-400,-1899,935,-639,991,-560,-550,300.6847,66.2898,82.7452,1,0
0001001416,1,0.6820,0.0689,-0.6461,0.3357,-1417,934,-400,-1887,847,-675,880,-544,-530,294.5871,68.0544,80.7065,1,0
0001001437,1,0.6799,0.0594,-0.6604,0.3133,-1463,864,-402,-1771,907,-643,786,-421,-463,289.9364,69.2497,78.8582,1,0
0001001458,1,0.6798,0.0514,-0.6711,0.2912,-1497,800,-408,-1887,643,-699,784,-283,-498,286.3108,70.4619,77.8494,1,0
0001001479,1,0.6804,0.0463,-0.6803,0.2686,-1530,728,-423,-2135,367,-815,674,-209,-551,283.0718,71.9111,77.0168,1,0
0001001500,1,0.6805,0.0450,-0.6874,0.2498,-1552,675,-425,-2359,231,-835,352,-104,-457,280.2392,73.3360,75.9106,1,0
0001001521,1,0.6804,0.0483,-0.6913,0.2382,-1552,675,-425,-2287,391,-719,-13,25,-366,278.5271,74.5392,74.9300,1,0
0001001542,1,0.6809,0.0610,-0.6915,0.2335,-1566,638,-430,-2239,351,-667,-289,182,-358,278.6061,75.9595,74.3807,1,0
0001001563,1,0.6827,0.0767,-0.6882,0.2334,-1570,616,-440,-2283,19,-527,-450,298,-378,280.7466,77.2698,75.2605,1,0
0001001584,1,0.6843,0.0956,-0.6832,0.2363,-1572,599,-459,-2115,-79,-403,-644,329,-344,284.0656,78.5799,76.7861,1,0
0001001605,1,0.6843,0.1177,-0.6769,0.2444,-1568,604,-466,-2071,-59,-299,-885,333,-269,288.2725,79.7020,78.4846,1,0
0001001626,1,0.6825,0.1491,-0.6657,0.2623,-1563,621,-462,-2107,-31,-115,-1167,371,-159,295.3836,80.7157,81.4499,1,0
0001001647,1,0.6798,0.1760,-0.6538,0.2817,-1563,621,-462,-2175,7,39,-1320,414,-71,302.7443,81.1712,84.8617,1,0
0001001668,1,0.6767,0.2045,-0.6387,0.3038,-1548,660,-456,-2259,135,223,-1447,501,-30,312.0640,81.3764,89.8046,1,0
0001001689,1,0.6733,0.2349,-0.6201,0.3271,-1529,707,-451,-2275,123,271,-1527,592,-25,323.4737,81.3617,96.4980,1,0
0001001710,1,0.6693,0.2661,-0.5991,0.3498,-1508,754,-450,-2291,35,327,-1525,639,-50,335.8955,81.1426,104.0963,1,0
0001001731,1,0.6642,0.2969,-0.5773,0.3707,-1491,793,-439,-2251,15,423,-1489,624,-70,347.9043,80.7539,111.3668,1,0
0001001752,1,0.6555,0.3334,-0.5503,0.3953,-1476,829,-422,-2287,195,455,-1434,540,-83,0.6932,80.0966,118.4004,1,0
0001001773,1,0.6472,0.3597,-0.5302,0.4130,-1476,829,-422,-2319,183,519,-1313,475,-75,8.7870,79.5615,122.2314,1,0
0001001794,1,0.6386,0.3831,-0.5113,0.4290,-1466,860,-393,-2355,299,455,-1197,405,-78,15.4032,79.0242,124.9412,1,0
0001001815,1,0.6297,0.4033,-0.4948,0.4428,-1459,883,-372,-2239,443,291,-1000,314,-61,20.6286,78.5937,126.7109,1,0
0001001836,1,0.6216,0.4198,-0.4803,0.4547,-1452,904,-340,-2135,439,151,-890,255,-36,24.5290,78.1873,127.6540,1,0
0001001857,1,0.6121,0.4357,-0.4647,0.4685,-1446,925,-315,-1915,331,35,-775,173,17,27.4646,77.7398,127.4260,1,0
