Time(ms),Interval,Qx,Qy,Qz,Qw,Mx,My,Mz,Ax,Ay,Az,Rx,Ry,Rz,H1,P1,R1,H2,P2,R2,CalStable,MagTransient
0000979744,3,0.2780,0.5613,-0.5849,0.5153,-1808,-171,502,-2023,-739,351,-8,2,-2,222.7681,64.6472,-59.8043,1,0
0000979765,3,0.2779,0.5615,-0.5848,0.5152,-1806,-172,501,-2031,-763,371,-9,7,-7,222.7082,64.6391,-59.8863,1,0
0000979786,3,0.2777,0.5619,-0.5847,0.5150,-1807,-174,499,-2023,-763,387,-16,9,-5,222.6250,64.6327,-60.0036,1,0
0000979807,3,0.2776,0.5625,-0.5843,0.5150,-1807,-174,499,-2007,-743,387,-24,12,2,222.5482,64.6465,-60.1422,1,0
0000979828,3,0.2775,0.5629,-0.5838,0.5151,-1805,-178,497,-2003,-711,367,-17,10,5,222.4935,64.6740,-60.2562,1,0
0000979849,3,0.2777,0.5631,-0.5836,0.5150,-1805,-174,497,-2003,-707,359,2,10,0,222.4298,64.7037,-60.3291,1,0
0000979870,3,0.2778,0.5633,-0.5836,0.5148,-1804,-175,495,-2023,-715,343,-3,6,-4,222.3697,64.7079,-60.3836,1,0
0000979891,3,0.2776,0.5635,-0.5835,0.5148,-1802,-176,495,-2015,-731,347,-10,-3,-7,222.3468,64.6904,-60.4308,1,0
0000979912,3,0.2772,0.5636,-0.5835,0.5148,-1801,-176,493,-1999,-719,355,-14,-5,-3,222.3595,64.6663,-60.4590,1,0
0000979933,3,0.2769,0.5638,-0.5832,0.5150,-1801,-176,493,-1999,-707,347,-13,0,2,222.3826,64.6616,-60.4867,1,0
0000979954,3,0.2769,0.5640,-0.5830,0.5151,-1800,-177,494,-2015,-719,351,-2,3,0,222.3758,64.6722,-60.5247,1,0
0000979975,3,0.2768,0.5641,-0.5831,0.5150,-1799,-178,493,-2019,-767,371,-3,-1,-10,222.3479,64.6574,-60.5518,1,0
0000979996,3,0.2761,0.5644,-0.5831,0.5150,-1797,-181,494,-2027,-791,371,-32,-12,-21,222.3433,64.5969,-60.6186,1,0
0000980017,3,0.2749,0.5652,-0.5827,0.5151,-1796,-185,494,-2015,-775,363,-59,-4,-25,222.3086,64.5177,-60.8029,1,0
0000980038,3,0.2736,0.5666,-0.5820,0.5153,-1796,-185,494,-2047,-703,343,-75,3,-17,222.2213,64.4587,-61.1038,1,0
0000980059,3,0.2723,0.5680,-0.5810,0.5155,-1794,-189,492,-2055,-663,331,-50,1,-11,222.1401,64.4161,-61.4216,1,0
0000980080,3,0.2716,0.5685,-0.5806,0.5157,-1794,-193,491,-2031,-667,343,-24,-9,-10,222.1421,64.3833,-61.5182,1,0
0000980101,3,0.2709,0.5686,-0.5807,0.5158,-1790,-194,492,-2011,-719,379,-16,-17,-15,222.1895,64.3253,-61.5269,1,0
0000980122,3,0.2703,0.5686,-0.5808,0.5160,-1790,-195,493,-2003,-707,383,-1,-17,-7,222.2608,64.2648,-61.4910,1,0
0000980143,3,0.2706,0.5681,-0.5812,0.5160,-1787,-193,493,-2063,-671,359,52,6,12,222.3236,64.2648,-61.3570,1,0
0000980164,3,0.2724,0.5668,-0.5822,0.5154,-1787,-193,493,-2107,-655,287,88,15,17,222.2946,64.3413,-61.1110,1,0
0000980185,3,0.2742,0.5652,-0.5834,0.5148,-1789,-189,493,-2123,-615,251,108,8,12,222.2876,64.4010,-60.8017,1,0
0000980206,3,0.2762,0.5649,-0.5825,0.5152,-1785,-185,493,-2091,-663,319,106,0,-7,222.3027,64.6508,-60.7299,1,0
0000980227,3,0.2773,0.5633,-0.5842,0.5143,-1784,-182,494,-2051,-703,347,98,-4,-13,222.2850,64.6085,-60.4387,1,0
0000980248,3,0.2791,0.5632,-0.5831,0.5146,-1783,-178,493,-2059,-659,355,114,28,9,222.2518,64.8512,-60.4321,1,0
0000980269,3,0.2816,0.5617,-0.5844,0.5134,-1784,-171,489,-2087,-555,347,142,42,34,222.0913,64.9555,-60.2005,1,0
0000980290,3,0.2865,0.5600,-0.5838,0.5133,-1784,-171,489,-2075,-455,327,190,29,58,222.0462,65.4216,-59.8789,1,0
0000980311,3,0.2910,0.5562,-0.5860,0.5124,-1782,-156,489,-2083,-419,315,244,21,78,222.1794,65.6543,-59.0644,1,0
0000980332,3,0.2968,0.5514,-0.5886,0.5112,-1783,-135,487,-2183,-419,303,303,40,104,222.3494,65.9497,-58.0487,1,0
0000980353,3,0.3043,0.5461,-0.5913,0.5095,-1781,-110,480,-2247,-419,251,353,90,136,222.4213,66.3927,-56.9478,1,0
0000980374,3,0.3142,0.5421,-0.5908,0.5083,-1783,-75,463,-2271,-363,187,391,174,189,222.2887,67.2741,-56.2173,1,0
0000980395,3,0.3286,0.5356,-0.5922,0.5044,-1784,-39,436,-2267,-295,139,392,234,208,221.7253,68.3594,-55.2295,1,0
0000980416,3,0.3409,0.5330,-0.5896,0.5021,-1784,-39,436,-2255,-271,139,368,265,202,220.9545,69.5831,-55.1370,1,0
0000980437,3,0.3526,0.5294,-0.5894,0.4980,-1786,-5,402,-2263,-259,163,335,280,184,219.9159,70.5453,-55.0517,1,0
0000980458,3,0.3642,0.5284,-0.5860,0.4947,-1786,25,365,-2275,-259,247,335,313,159,218.4548,71.7487,-55.7769,1,0
0000980479,3,0.3762,0.5261,-0.5857,0.4886,-1784,52,319,-2315,-331,311,365,377,121,216.3708,72.6949,-56.6866,1,0
0000980500,3,0.3922,0.5256,-0.5826,0.4800,-1783,72,266,-2307,-355,291,386,414,89,212.4272,74.0796,-59.3598,1,0
0000980521,3,0.4048,0.5260,-0.5802,0.4721,-1778,84,211,-2247,-367,223,392,417,48,208.2983,75.0912,-62.4522,1,0
0000980542,3,0.4162,0.5251,-0.5807,0.4624,-1778,84,211,-2183,-351,179,360,416,0,203.8474,75.6996,-65.6113,1,0
0000980563,3,0.4265,0.5275,-0.5781,0.4535,-1775,86,155,-2183,-287,171,294,427,-40,198.3028,76.2937,-70.3380,1,0
0000980584,3,0.4356,0.5295,-0.5773,0.4433,-1768,86,97,-2227,-271,167,232,470,-67,192.5239,76.5318,-75.1618,1,0
0000980605,3,0.4448,0.5345,-0.5729,0.4338,-1760,81,34,-2247,-251,175,211,494,-67,185.4109,76.7690,-81.7347,1,0
0000980626,3,0.4566,0.5407,-0.5669,0.4217,-1750,76,-30,-2219,-195,151,197,526,-29,176.0479,76.8257,-90.4292,1,0
0000980647,3,0.4675,0.5430,-0.5633,0.4114,-1750,76,-30,-2171,-23,35,253,534,51,168.8671,76.7803,-96.7253,1,0
0000980668,3,0.4803,0.5442,-0.5578,0.4025,-1735,84,-96,-2239,39,-51,384,491,146,161.0201,76.8841,-103.7010,1,0
0000980689,3,0.4951,0.5391,-0.5567,0.3928,-1718,101,-155,-2267,15,-103,565,398,269,154.3729,77.1142,-108.7110,1,0
0000980710,3,0.5112,0.5319,-0.5547,0.3847,-1701,129,-203,-2291,-51,-119,679,327,339,147.1626,77.5420,-114.2244,1,0
0000980731,3,0.5326,0.5184,-0.5549,0.3737,-1681,154,-248,-2299,-223,-43,808,328,362,138.1534,78.1165,-120.5722,1,0
0000980752,3,0.5513,0.5041,-0.5579,0.3614,-1660,173,-306,-2259,-391,-15,886,401,338,130.5979,78.3998,-125.3295,1,0
0000980773,3,0.5698,0.4937,-0.5571,0.3482,-1660,173,-306,-2219,-559,-31,904,474,295,121.8064,78.1417,-131.7191,1,0
0000980794,3,0.5884,0.4809,-0.5590,0.3318,-1633,180,-369,-2171,-715,-51,875,483,218,114.1662,77.6586,-136.4600,1,0
0000980815,3,0.6032,0.4742,-0.5576,0.3169,-1609,172,-433,-2167,-787,-119,752,458,113,108.0963,76.7045,-140.4539,1,0
0000980836,3,0.6185,0.4655,-0.5582,0.2986,-1585,156,-490,-2127,-863,-203,725,415,72,103.1314,75.5838,-142.8676,1,0
0000980857,3,0.6306,0.4562,-0.5608,0.2824,-1567,132,-536,-1939,-875,-147,763,344,49,99.9260,74.7779,-143.6714,1,0
0000980878,3,0.6401,0.4481,-0.5640,0.2673,-1549,102,-572,-1783,-863,-147,759,301,25,97.8996,74.0538,-143.5322,1,0
0000980899,3,0.6483,0.4407,-0.5672,0.2528,-1549,102,-572,-1635,-907,-99,719,272,-17,96.3574,73.3597,-143.0576,1,0
0000980920,3,0.6557,0.4329,-0.5715,0.2368,-1536,65,-604,-1607,-883,-43,638,209,-96,95.3873,72.6411,-141.8493,1,0
0000980941,3,0.6607,0.4268,-0.5772,0.2197,-1522,27,-624,-1631,-951,-7,581,136,-132,95.6111,71.8331,-139.5443,1,0
0000980962,3,0.6636,0.4216,-0.5822,0.2071,-1517,-12,-637,-1647,-947,35,496,79,-142,95.9944,71.3202,-137.5628,1,0
0000980983,3,0.6638,0.4193,-0.5869,0.1979,-1513,-47,-637,-1683,-1015,43,389,21,-131,97.1050,70.9161,-135.4258,1,0
0000981004,3,0.6638,0.4164,-0.5913,0.1907,-1513,-70,-631,-1751,-1007,47,277,-42,-110,97.9955,70.6970,-133.6336,1,0
0000981025,3,0.6612,0.4158,-0.5958,0.1869,-1513,-70,-631,-1819,-1095,27,181,-123,-96,99.6691,70.6231,-131.5603,1,0
0000981046,3,0.6574,0.4165,-0.5998,0.1863,-1517,-88,-616,-1947,-1063,35,100,-154,-92,101.5571,70.6815,-129.6732,1,0
0000981067,3,0.6528,0.4163,-0.6051,0.1855,-1524,-100,-598,-2031,-1059,0,8,-186,-85,103.8909,70.8074,-127.2462,1,0
0000981088,3,0.6471,0.4192,-0.6083,0.1883,-1531,-109,-577,-2063,-1035,-63,-55,-205,-80,106.2803,70.9452,-125.3668,1,0
0000981109,3,0.6422,0.4214,-0.6111,0.1912,-1538,-109,-555,-2203,-903,-127,-154,-210,-92,108.3621,71.0917,-123.7441,1,0
0000981130,3,0.6350,0.4275,-0.6125,0.1971,-1547,-112,-534,-2255,-739,-199,-241,-224,-116,111.0179,71.1581,-122.1808,1,0
0000981151,3,0.6272,0.4341,-0.6137,0.2037,-1547,-112,-534,-2291,-707,-187,-241,-239,-126,113.8287,71.2144,-120.5812,1,0
0000981172,3,0.6190,0.4402,-0.6158,0.2094,-1556,-115,-509,-2319,-687,-135,-255,-208,-130,116.9537,71.2096,-118.5399,1,0
0000981193,3,0.6120,0.4475,-0.6155,0.2152,-1563,-118,-492,-2291,-627,-103,-278,-136,-126,119.2224,71.0926,-117.5012,1,0
0000981214,3,0.6074,0.4537,-0.6142,0.2191,-1565,-117,-484,-2167,-563,-139,-309,-66,-116,120.5027,70.8946,-117.1930,1,0
0000981235,3,0.6024,0.4621,-0.6109,0.2245,-1566,-114,-483,-2091,-551,-159,-342,-20,-106,121.5548,70.6448,-117.4562,1,0
0000981256,3,0.5981,0.4709,-0.6064,0.2300,-1563,-110,-489,-2071,-471,-163,-357,36,-82,122.1697,70.3741,-118.2218,1,0
0000981277,3,0.5954,0.4799,-0.6000,0.2349,-1563,-110,-489,-2127,-479,-167,-368,82,-51,121.9524,70.0396,-119.7985,1,0
0000981298,3,0.5935,0.4883,-0.5931,0.2400,-1561,-100,-501,-2199,-359,-171,-353,141,-17,121.4497,69.7790,-121.6341,1,0
0000981319,3,0.5942,0.4945,-0.5862,0.2425,-1553,-86,-519,-2247,-207,-283,-289,198,-4,120.1549,69.4646,-123.8064,1,0
0000981340,3,0.5944,0.5016,-0.5789,0.2450,-1544,-76,-544,-2287,-111,-331,-237,213,-32,119.0168,69.0571,-125.9189,1,0
0000981361,3,0.5942,0.5084,-0.5726,0.2460,-1534,-76,-566,-2323,-171,-351,-196,188,-71,118.1703,68.5453,-127.5979,1,0
0000981382,3,0.5948,0.5147,-0.5666,0.2456,-1534,-76,-566,-2379,-211,-387,-167,149,-68,117.2435,67.9416,-129.1753,1,0
0000981403,3,0.5940,0.5200,-0.5621,0.2467,-1528,-74,-581,-2419,-283,-447,-134,141,-38,116.8824,67.5580,-130.2195,1,0
0000981424,3,0.5946,0.5240,-0.5575,0.2472,-1519,-73,-596,-2419,-247,-559,-77,177,18,116.1732,67.2229,-131.4267,1,0
0000981445,3,0.5980,0.5247,-0.5538,0.2456,-1510,-67,-616,-2351,-215,-627,25,203,59,114.7743,66.9464,-132.7778,1,0
0000981466,3,0.6015,0.5253,-0.5505,0.2433,-1496,-65,-637,-2307,-211,-635,126,227,50,113.4610,66.6176,-133.9537,1,0
0000981487,3,0.6062,0.5241,-0.5484,0.2388,-1486,-74,-658,-2259,-259,-603,143,219,26,112.0010,66.2354,-134.9062,1,0
0000981508,3,0.6103,0.5244,-0.5460,0.2333,-1486,-74,-658,-2143,-279,-551,163,224,-15,110.7867,65.6578,-135.6828,1,0
0000981529,3,0.6143,0.5239,-0.5448,0.2266,-1471,-84,-678,-2055,-207,-563,178,244,-51,109.7643,65.0579,-136.0798,1,0
0000981550,3,0.6176,0.5245,-0.5434,0.2195,-1458,-103,-700,-1931,-127,-575,207,256,-91,108.9893,64.3494,-136.3130,1,0
0000981571,3,0.6211,0.5242,-0.5433,0.2104,-1441,-126,-722,-1879,-115,-539,261,243,-114,108.3264,63.5665,-136.1665,1,0
0000981592,3,0.6246,0.5231,-0.5441,0.2005,-1426,-155,-741,-1895,-183,-503,351,242,-116,107.7465,62.8087,-135.7838,1,0
0000981613,3,0.6298,0.5203,-0.5459,0.1861,-1407,-189,-763,-1919,-279,-459,413,285,-116,106.9138,61.7996,-135.0819,1,0
0000981634,3,0.6353,0.5171,-0.5472,0.1719,-1407,-189,-763,-2043,-403,-467,493,366,-119,105.9207,60.8190,-134.5360,1,0
0000981655,3,0.6417,0.5134,-0.5481,0.1555,-1384,-230,-791,-2219,-507,-411,542,425,-141,104.6933,59.6745,-133.9998,1,0
0000981676,3,0.6479,0.5102,-0.5486,0.1381,-1354,-276,-822,-2259,-803,-167,511,422,-178,103.5076,58.3962,-133.3889,1,0
0000981697,3,0.6520,0.5081,-0.5492,0.1225,-1327,-317,-845,-2115,-975,87,348,289,-193,102.7712,57.2169,-132.6244,1,0
0000981718,3,0.6546,0.5080,-0.5491,0.1094,-1308,-347,-862,-2031,-1047,227,134,213,-135,102.3225,56.0959,-131.9818,1,0
0000981739,3,0.6562,0.5095,-0.5466,0.1054,-1297,-348,-873,-1795,-1071,379,-30,144,-47,101.9097,55.5563,-132.2458,1,0
0000981760,3,0.6563,0.5111,-0.5448,0.1062,-1297,-348,-873,-1607,-1119,419,-201,-40,23,101.8014,55.4538,-132.6013,1,0
0000981781,3,0.6527,0.5144,-0.5440,0.1162,-1305,-330,-868,-1535,-1131,555,-435,-354,70,102.5242,56.0608,-133.0582,1,0
0000981802,3,0.6437,0.5194,-0.5458,0.1343,-1336,-286,-830,-1383,-1115,791,-782,-729,89,104.5271,57.3671,-133.0567,1,0
0000981823,3,0.6246,0.5295,-0.5485,0.1692,-1391,-224,-763,-1355,-955,971,-1065,-996,78,108.8599,59.8139,-132.6963,1,0
0000981844,3,0.6025,0.5410,-0.5492,0.2068,-1455,-144,-661,-1511,-811,1071,-1349,-1221,49,113.9378,62.3124,-132.0517,1,0
0000981865,3,0.5740,0.5547,-0.5486,0.2488,-1524,-67,-534,-1915,-599,1183,-1621,-1356,-16,120.8399,64.9326,-130.3466,1,0
0000981886,3,0.5398,0.5713,-0.5436,0.2945,-1524,-67,-534,-2291,-415,1183,-1809,-1395,-125,129.4031,67.4239,-127.8553,1,0
0000981907,3,0.5012,0.5888,-0.5367,0.3377,-1580,-11,-391,-2567,-367,1075,-1796,-1359,-265,139.8078,69.3418,-123.6952,1,0
0000981928,3,0.4606,0.6040,-0.5297,0.3773,-1630,15,-244,-2851,-367,835,-1665,-1366,-302,151.6831,70.7065,-117.7942,1,0
0000981949,3,0.4110,0.6159,-0.5234,0.4218,-1664,14,-90,-2839,-443,659,-1362,-1374,-271,168.0758,71.7496,-107.9190,1,0
0000981970,3,0.3732,0.6201,-0.5198,0.4538,-1685,0,62,-2835,-559,575,-1211,-1338,-233,181.6435,71.9622,-98.8679,1,0
0000981991,3,0.3375,0.6221,-0.5152,0.4833,-1692,-24,198,-2507,-607,491,-1144,-1240,-191,194.3621,71.6480,-90.3417,1,0
0000982012,3,0.3037,0.6240,-0.5085,0.5097,-1692,-24,198,-2251,-615,395,-1147,-1091,-181,205.2120,70.9038,-83.5474,1,0
0000982033,3,0.2704,0.6270,-0.4996,0.5330,-1693,-58,313,-2183,-551,311,-1174,-959,-225,214.1159,69.8244,-78.7278,1,0
0000982054,3,0.2295,0.6312,-0.4878,0.5577,-1685,-105,409,-2091,-419,175,-1093,-870,-258,223.0212,68.1068,-74.7726,1,0
0000982075,3,0.1998,0.6334,-0.4791,0.5739,-1678,-157,488,-1979,-363,107,-953,-760,-234,228.6243,66.7021,-72.6763,1,0
0000982096,3,0.1744,0.6346,-0.4712,0.5873,-1665,-205,549,-2007,-323,119,-797,-647,-183,233.0901,65.4643,-71.2043,1,0
0000982117,3,0.1527,0.6349,-0.4639,0.5986,-1658,-243,600,-1963,-351,67,-709,-580,-152,236.7887,64.4002,-70.0977,1,0
0000982138,3,0.1327,0.6347,-0.4570,0.6089,-1658,-243,600,-2059,-183,-51,-599,-534,-152,240.0906,63.4048,-69.1685,1,0
0000982159,3,0.1103,0.6330,-0.4508,0.6196,-1646,-285,647,-1987,-147,-59,-488,-496,-164,243.6240,62.1100,-68.1169,1,0
0000982180,3,0.0959,0.6306,-0.4477,0.6266,-1637,-318,685,-1979,-231,-47,-343,-422,-127,245.9588,61.1918,-67.2728,1,0
0000982201,3,0.0856,0.6282,-0.4456,0.6321,-1630,-341,714,-2047,-507,-31,-233,-307,-73,247.7687,60.5044,-66.5266,1,0
0000982222,3,0.0786,0.6272,-0.4433,0.6355,-1632,-357,722,-2183,-611,-95,-206,-161,-47,248.8518,60.1025,-66.2320,1,0
0000982243,3,0.0726,0.6291,-0.4402,0.6365,-1632,-357,722,-2367,-703,-159,-309,-13,-73,249.0994,59.8608,-66.7825,1,0
0000982264,3,0.0650,0.6333,-0.4354,0.6365,-1639,-381,713,-2415,-603,31,-465,-30,-70,248.9843,59.6327,-68.0040,1,0
0000982285,3,0.0523,0.6396,-0.4257,0.6380,-1645,-409,701,-2299,-459,31,-525,-76,-25,249.2368,59.3870,-69.7362,1,0
0000982306,3,0.0442,0.6438,-0.4178,0.6395,-1651,-428,690,-2211,-331,-63,-389,-21,28,249.5358,59.3598,-70.8702,1,0
0000982327,3,0.0414,0.6472,-0.4124,0.6398,-1664,-427,676,-2347,-363,-127,-153,60,75,249.4425,59.5787,-71.7067,1,0
0000982348,3,0.0438,0.6487,-0.4101,0.6396,-1677,-410,665,-2399,-503,-187,96,98,131,249.1549,59.9640,-72.0282,1,0
0000982369,3,0.0501,0.6491,-0.4099,0.6389,-1677,-410,665,-2403,-819,-71,183,164,159,248.7194,60.5096,-71.9749,1,0
0000982390,3,0.0592,0.6508,-0.4097,0.6365,-1693,-384,647,-2331,-1123,47,115,208,128,247.6385,61.2732,-72.3317,1,0
0000982411,3,0.0635,0.6540,-0.4079,0.6339,-1708,-367,623,-2303,-1175,171,-52,204,90,246.5486,61.7637,-73.2469,1,0
0000982432,3,0.0648,0.6585,-0.4039,0.6317,-1720,-360,595,-2291,-995,131,-146,172,86,245.5284,62.1715,-74.5423,1,0
0000982453,3,0.0663,0.6622,-0.3999,0.6302,-1732,-351,575,-2235,-807,23,-78,146,102,244.6957,62.5849,-75.6270,1,0
0000982474,3,0.0693,0.6647,-0.3976,0.6287,-1741,-337,553,-2195,-835,79,0,154,88,243.8901,62.9956,-76.4137,1,0
0000982495,3,0.0727,0.6680,-0.3953,0.6262,-1741,-337,553,-2199,-903,147,-31,155,56,242.7347,63.4044,-77.5004,1,0
0000982516,3,0.0747,0.6709,-0.3936,0.6240,-1750,-333,532,-2203,-1023,91,-30,158,46,241.7448,63.6557,-78.4930,1,0
0000982537,3,0.0770,0.6737,-0.3924,0.6215,-1755,-325,512,-2207,-1127,35,3,164,26,240.6818,63.8628,-79.4740,1,0
0000982558,3,0.0786,0.6762,-0.3923,0.6185,-1761,-328,493,-2179,-1131,71,-1,145,-27,239.5930,63.9265,-80.4354,1,0
0000982579,3,0.0783,0.6790,-0.3921,0.6157,-1764,-335,474,-2039,-963,91,-89,121,-55,238.6377,63.8396,-81.4286,1,0
0000982600,3,0.0764,0.6832,-0.3899,0.6127,-1767,-343,456,-1987,-811,135,-146,121,-34,237.5371,63.7342,-82.8740,1,0
0000982621,3,0.0749,0.6869,-0.3872,0.6105,-1767,-343,456,-2023,-803,155,-153,126,-17,236.6521,63.7162,-84.1374,1,0
0000982642,3,0.0740,0.6899,-0.3852,0.6084,-1769,-350,438,-2003,-815,167,-70,102,-16,235.8516,63.7027,-85.1872,1,0
0000982663,3,0.0743,0.6912,-0.3853,0.6068,-1773,-353,428,-1935,-867,163,11,62,-30,235.3140,63.6544,-85.6944,1,0
0000982684,3,0.0743,0.6921,-0.3858,0.6055,-1770,-357,422,-1907,-963,127,-17,44,-29,234.9543,63.5664,-85.9963,1,0
0000982705,3,0.0737,0.6932,-0.3854,0.6046,-1773,-360,417,-1935,-1039,103,-61,37,-21,234.6555,63.5022,-86.3795,1,0
0000982726,3,0.0721,0.6946,-0.3840,0.6040,-1773,-366,413,-1927,-955,59,-65,11,-18,234.4424,63.4408,-86.8514,1,0
0000982747,3,0.0712,0.6950,-0.3836,0.6039,-1773,-366,413,-1891,-851,91,-21,-3,-9,234.4347,63.3982,-86.9698,1,0
0000982768,3,0.0709,0.6951,-0.3833,0.6041,-1774,-367,414,-1907,-823,119,-23,-8,0,234.4781,63.3975,-86.9795,1,0
0000982789,3,0.0703,0.6953,-0.3827,0.6043,-1773,-367,414,-1907,-891,107,-33,-14,-1,234.5573,63.3951,-87.0086,1,0
0000982810,3,0.0697,0.6952,-0.3825,0.6046,-1774,-368,417,-1915,-995,135,-1,-19,-15,234.6825,63.3724,-86.9553,1,0
0000982831,3,0.0693,0.6948,-0.3831,0.6047,-1773,-373,418,-1919,-1103,131,16,-12,-20,234.7956,63.3017,-86.8138,1,0
0000982852,3,0.0688,0.6944,-0.3837,0.6048,-1773,-373,418,-1903,-1067,79,0,-22,-27,234.9030,63.2237,-86.6885,1,0
0000982873,3,0.0673,0.6945,-0.3836,0.6050,-1773,-374,420,-1927,-1015,83,-63,-28,-35,235.0679,63.1197,-86.6528,1,0
0000982894,3,0.0648,0.6952,-0.3825,0.6051,-1771,-383,420,-1951,-963,107,-108,-10,-43,235.1712,62.9931,-86.8593,1,0
0000982915,3,0.0624,0.6961,-0.3814,0.6050,-1773,-387,419,-1955,-951,115,-82,-12,-40,235.2104,62.8644,-87.1146,1,0
0000982936,3,0.0604,0.6965,-0.3807,0.6052,-1771,-394,419,-1939,-903,71,-47,-22,-19,235.3698,62.7589,-87.1964,1,0
0000982957,3,0.0595,0.6965,-0.3803,0.6056,-1770,-393,421,-1923,-871,27,-18,-20,-1,235.5039,62.7306,-87.1688,1,0
0000982978,3,0.0595,0.6961,-0.3802,0.6061,-1770,-393,421,-1923,-891,39,13,-24,7,235.6601,62.7498,-87.0229,1,0
0000982999,3,0.0599,0.6955,-0.3807,0.6064,-1771,-394,424,-1959,-991,75,36,-13,6,235.7872,62.7712,-86.8191,1,0
0000983020,3,0.0604,0.6951,-0.3812,0.6065,-1770,-391,426,-2015,-1067,75,10,0,-2,235.8191,62.7794,-86.6970,1,0
0000983041,3,0.0603,0.6953,-0.3810,0.6064,-1772,-391,424,-2007,-1003,43,-21,7,0,235.7716,62.7787,-86.7671,1,0
0000983062,3,0.0601,0.6957,-0.3806,0.6063,-1772,-391,422,-1923,-923,31,-14,11,1,235.7069,62.7841,-86.8838,1,0
0000983083,3,0.0603,0.6960,-0.3805,0.6059,-1773,-392,420,-1919,-939,67,-1,21,1,235.5824,62.7981,-87.0090,1,0
0000983104,3,0.0606,0.6964,-0.3804,0.6055,-1773,-392,420,-1931,-1027,155,-3,28,2,235.4104,62.8089,-87.1662,1,0
0000983125,3,0.0608,0.6970,-0.3801,0.6050,-1773,-394,416,-1935,-1051,151,-19,24,-2,235.2108,62.8168,-87.3750,1,0
0000983146,3,0.0606,0.6975,-0.3797,0.6046,-1775,-392,414,-1939,-1007,75,-23,10,-1,235.0914,62.8138,-87.5464,1,0
0000983167,3,0.0601,0.6978,-0.3792,0.6046,-1774,-394,413,-1923,-967,39,-21,-2,-4,235.0849,62.8038,-87.6381,1,0
0000983188,3,0.0597,0.6981,-0.3789,0.6046,-1775,-396,413,-1923,-959,59,-23,1,-6,235.0801,62.7927,-87.7033,1,0
0000983209,3,0.0592,0.6985,-0.3784,0.6045,-1774,-397,409,-1911,-959,59,-35,12,-2,235.0255,62.7772,-87.8477,1,0
0000983230,3,0.0589,0.6991,-0.3777,0.6042,-1774,-397,409,-1891,-931,59,-33,17,7,234.9036,62.7977,-88.0594,1,0
0000983251,3,0.0588,0.6995,-0.3771,0.6041,-1775,-397,408,-1899,-947,83,-11,4,4,234.8219,62.8213,-88.1977,1,0
0000983272,3,0.0588,0.6997,-0.3768,0.6042,-1775,-397,407,-1951,-975,99,-11,-1,3,234.8134,62.8408,-88.2402,1,0
0000983293,3,0.0589,0.6999,-0.3765,0.6041,-1777,-395,405,-1943,-1019,67,-8,15,8,234.7547,62.8664,-88.3177,1,0
0000983314,3,0.0593,0.7002,-0.3763,0.6038,-1776,-394,403,-1923,-999,23,5,19,14,234.6186,62.9079,-88.4387,1,0
0000983335,3,0.0597,0.7002,-0.3762,0.6039,-1776,-394,403,-1927,-955,23,-1,-3,8,234.5899,62.9410,-88.4502,1,0
0000983356,3,0.0595,0.7004,-0.3757,0.6039,-1778,-392,403,-1959,-923,31,-33,11,9,234.5847,62.9641,-88.5118,1,0
0000983377,3,0.0594,0.7011,-0.3747,0.6038,-1777,-394,402,-1951,-975,91,-25,16,12,234.4548,63.0095,-88.7439,1,0
0000983398,3,0.0595,0.7014,-0.3743,0.6037,-1780,-391,399,-1939,-1011,95,-9,9,10,234.3834,63.0442,-88.8494,1,0
0000983419,3,0.0597,0.7015,-0.3740,0.6037,-1780,-390,398,-1935,-987,35,-4,3,14,234.3461,63.0825,-88.8994,1,0
0000983440,3,0.0599,0.7014,-0.3737,0.6040,-1780,-389,399,-1927,-955,35,0,-9,12,234.3784,63.1273,-88.8757,1,0
0000983461,3,0.0599,0.7014,-0.3735,0.6041,-1780,-389,399,-1903,-987,71,-15,13,4,234.3953,63.1480,-88.8693,1,0
0000983482,3,0.0597,0.7020,-0.3727,0.6039,-1780,-390,397,-1931,-971,51,-37,9,10,234.2811,63.1787,-89.0792,1,0
0000983503,3,0.0593,0.7023,-0.3719,0.6041,-1781,-389,396,-1943,-975,63,-27,-4,7,234.2875,63.2073,-89.1744,1,0
0000983524,3,0.0589,0.7024,-0.3715,0.6043,-1782,-389,397,-1931,-999,63,-22,-7,-1,234.3401,63.2113,-89.1961,1,0
0000983545,3,0.0584,0.7025,-0.3710,0.6044,-1781,-391,396,-1939,-911,27,-26,-6,2,234.3881,63.2098,-89.2319,1,0
0000983566,3,0.0583,0.7026,-0.3706,0.6047,-1783,-391,396,-1927,-863,7,0,-6,14,234.4407,63.2380,-89.2359,1,0
0000983587,3,0.0587,0.7023,-0.3706,0.6049,-1783,-391,396,-1931,-875,-11,27,-2,14,234.4784,63.2856,-89.1607,1,0
0000983608,3,0.0602,0.7019,-0.3716,0.6047,-1783,-389,397,-1959,-951,-3,65,23,12,234.3870,63.3363,-89.0380,1,0
0000983629,3,0.0619,0.7017,-0.3725,0.6041,-1784,-387,396,-1939,-991,15,64,37,14,234.1556,63.3787,-89.0399,1,0
0000983650,3,0.0632,0.7017,-0.3732,0.6036,-1782,-382,393,-1943,-1083,163,28,22,6,233.9506,63.4152,-89.0822,1,0
0000983671,3,0.0628,0.7019,-0.3730,0.6036,-1784,-387,394,-1975,-991,91,-37,-12,-13,233.9535,63.3930,-89.1248,1,0
0000983692,3,0.0618,0.7020,-0.3726,0.6038,-1783,-387,395,-1947,-899,15,-11,-6,-3,234.0610,63.3528,-89.1403,1,0
0000983713,3,0.0623,0.7018,-0.3727,0.6039,-1783,-387,395,-1939,-839,-35,36,7,17,234.0577,63.3859,-89.0856,1,0
0000983734,3,0.0635,0.7018,-0.3729,0.6037,-1785,-385,394,-1991,-919,11,21,26,24,233.9280,63.4590,-89.1043,1,0
0000983755,3,0.0640,0.7020,-0.3726,0.6035,-1784,-380,393,-1991,-923,19,-7,8,15,233.8080,63.5201,-89.2105,1,0
0000983776,3,0.0644,0.7019,-0.3724,0.6037,-1785,-377,393,-1943,-915,23,19,-5,17,233.8262,63.5662,-89.1785,1,0
0000983797,3,0.0656,0.7014,-0.3728,0.6040,-1784,-372,396,-1955,-887,-11,62,3,43,233.8456,63.6561,-89.0237,1,0
0000983818,3,0.0683,0.7006,-0.3733,0.6042,-1787,-362,395,-1975,-847,-23,70,20,57,233.7593,63.8548,-88.8430,1,0
0000983839,3,0.0710,0.7004,-0.3735,0.6041,-1787,-362,395,-1987,-799,-47,68,42,69,233.5242,64.0538,-88.8434,1,0
0000983860,3,0.0740,0.7003,-0.3734,0.6039,-1787,-355,391,-1999,-743,-59,69,42,87,233.2262,64.3032,-88.9004,1,0
0000983881,3,0.0775,0.7001,-0.3731,0.6039,-1789,-337,388,-1979,-723,-39,77,53,101,232.9118,64.6011,-88.9581,1,0
0000983902,3,0.0817,0.7000,-0.3729,0.6036,-1791,-321,385,-1955,-731,-67,101,72,118,232.4498,64.9512,-89.0986,1,0
0000983923,3,0.0887,0.6995,-0.3744,0.6022,-1793,-298,376,-1983,-747,-123,147,86,137,231.6161,65.3584,-89.2213,1,0
0000983944,3,0.0975,0.6990,-0.3752,0.6009,-1796,-273,363,-2003,-751,-123,206,139,171,230.5501,65.9616,-89.4864,1,0
0000983965,3,0.1080,0.6988,-0.3771,0.5982,-1796,-273,363,-2047,-767,-95,225,184,205,229.0050,66.5557,-89.9775,1,0
0000983986,3,0.1194,0.6988,-0.3785,0.5951,-1800,-241,345,-2063,-727,-119,201,201,234,227.1483,67.2382,-90.7656,1,0
0000984007,3,0.1288,0.6992,-0.3775,0.5933,-1802,-208,326,-2071,-699,-103,185,190,238,225.5572,67.9616,-91.6582,1,0
0000984028,3,0.1396,0.6997,-0.3779,0.5901,-1805,-175,303,-2067,-691,-79,146,250,214,223.4384,68.6237,-92.8331,1,0
0000984049,3,0.1530,0.7018,-0.3769,0.5848,-1807,-141,270,-2127,-659,-179,142,295,246,220.0396,69.4190,-95.1940,1,0
0000984070,3,0.1638,0.7040,-0.3740,0.5811,-1807,-141,270,-2159,-603,-223,160,333,303,216.9754,70.1673,-97.6071,1,0
0000984091,3,0.1785,0.7057,-0.3721,0.5759,-1808,-99,232,-2207,-467,-275,212,371,362,212.9279,71.0248,-100.5710,1,0
0000984112,3,0.1936,0.7076,-0.3687,0.5710,-1807,-50,188,-2315,-531,-255,246,433,402,208.3038,71.9301,-104.2208,1,0
0000984133,3,0.2113,0.7101,-0.3653,0.5635,-1806,2,131,-2299,-571,-303,176,544,420,202.0522,72.7062,-109.2338,1,0
0000984154,3,0.2312,0.7153,-0.3567,0.5546,-1800,58,67,-2247,-599,-403,128,537,455,193.1570,73.4208,-117.1558,1,0
0000984175,3,0.2484,0.7180,-0.3502,0.5478,-1789,117,13,-2351,-499,-491,66,476,469,185.5680,73.8793,-123.8154,1,0
0000984196,3,0.2649,0.7205,-0.3428,0.5415,-1789,117,13,-2423,-423,-627,34,490,465,177.7939,74.1275,-130.7785,1,0
0000984217,3,0.2783,0.7243,-0.3328,0.5359,-1775,170,-43,-2463,-299,-631,-7,494,444,170.2871,74.0598,-137.9712,1,0
0000984238,3,0.2926,0.7275,-0.3243,0.5291,-1757,221,-97,-2415,-191,-467,8,537,399,162.9277,73.6576,-144.7789,1,0
0000984259,3,0.3097,0.7329,-0.3123,0.5191,-1738,269,-161,-2347,-235,-535,76,605,450,154.2625,72.6043,-152.9012,1,0
0000984280,3,0.3276,0.7353,-0.3031,0.5100,-1711,324,-225,-2419,-191,-699,64,586,527,146.9563,71.5533,-159.3250,1,0
0000984301,3,0.3448,0.7366,-0.2928,0.5028,-1681,381,-279,-2503,-23,-831,13,504,544,140.2530,70.4940,-165.3023,1,0
0000984322,3,0.3594,0.7376,-0.2820,0.4973,-1681,381,-279,-2431,91,-739,75,457,533,134.6928,69.4401,-170.4182,1,0
0000984343,3,0.3772,0.7361,-0.2745,0.4905,-1648,435,-327,-2311,131,-735,247,441,571,129.3106,68.3021,-174.7256,1,0
0000984364,3,0.3956,0.7335,-0.2680,0.4833,-1614,490,-378,-2359,191,-963,346,407,614,124.3663,67.0950,-178.4157,1,0
0000984385,3,0.4220,0.7268,-0.2628,0.4739,-1575,538,-426,-2363,311,-1159,396,372,641,118.1120,65.5954,177.5058,1,0
0000984406,3,0.4446,0.7196,-0.2597,0.4660,-1531,590,-473,-2271,499,-1259,411,355,666,113.1967,64.3597,174.6243,1,0
0000984427,3,0.4658,0.7126,-0.2555,0.4583,-1481,631,-526,-2283,567,-1123,511,369,694,108.7814,63.0158,172.0472,1,0
0000984448,3,0.4916,0.7019,-0.2559,0.4474,-1481,631,-526,-2203,523,-1191,690,353,685,104.1485,61.6095,170.2310,1,0
0000984469,3,0.5154,0.6916,-0.2578,0.4354,-1432,658,-588,-2191,491,-1299,823,308,640,100.3930,60.2324,169.2975,1,0
0000984490,3,0.5471,0.6752,-0.2656,0.4173,-1384,668,-649,-2119,607,-1475,943,313,556,95.8472,58.6725,169.1312,1,0
0000984511,3,0.5741,0.6609,-0.2766,0.3964,-1338,651,-731,-2015,591,-1215,1236,381,470,92.8218,57.3047,170.4578,1,0
0000984532,3,0.5980,0.6478,-0.2908,0.3716,-1297,592,-820,-1959,471,-907,1465,348,354,90.8684,56.0316,173.0372,1,0
0000984553,3,0.6236,0.6310,-0.3107,0.3413,-1266,504,-905,-1763,47,-819,1486,371,155,88.9264,54.8983,176.6477,1,0
0000984574,3,0.6404,0.6214,-0.3279,0.3102,-1266,504,-905,-1751,-99,-691,1412,394,-59,88.7726,53.6595,-179.0068,1,0
0000984595,3,0.6611,0.6062,-0.3512,0.2686,-1239,394,-975,-1615,3,-695,1294,378,-156,88.2781,52.1839,-173.3825,1,0
0000984616,3,0.6747,0.5950,-0.3677,0.2357,-1215,288,-1033,-1439,-51,-599,1219,368,-210,88.0520,50.9559,-169.0524,1,0
0000984637,3,0.6809,0.5894,-0.3823,0.2068,-1195,173,-1074,-1327,-175,-555,1176,279,-264,88.8561,49.8557,-164.7937,1,0
0000984658,3,0.6878,0.5798,-0.3993,0.1772,-1183,57,-1094,-1315,-159,-515,1147,165,-306,89.2283,49.0026,-160.4777,1,0
0000984679,3,0.6894,0.5734,-0.4163,0.1506,-1177,-60,-1098,-1371,-367,-463,1184,86,-297,90.3593,48.2987,-156.0756,1,0
0000984700,3,0.6927,0.5619,-0.4353,0.1225,-1177,-60,-1098,-1427,-439,-535,1203,-4,-241,90.8837,47.7880,-151.6071,1,0
0000984721,3,0.6938,0.5466,-0.4602,0.0905,-1176,-175,-1083,-1415,-587,-547,1223,-105,-228,91.7848,47.5110,-146.0230,1,0
0000984742,3,0.6904,0.5359,-0.4813,0.0677,-1186,-288,-1050,-1463,-1151,-343,1167,-209,-275,93.1863,47.4828,-141.3213,1,0
0000984763,3,0.6861,0.5240,-0.5027,0.0443,-1196,-395,-1001,-1563,-1263,-315,1078,-242,-318,94.6284,47.4080,-136.4743,1,0
0000984784,3,0.6797,0.5156,-0.5212,0.0245,-1206,-489,-955,-1447,-1239,-343,946,-209,-286,96.3283,47.2015,-132.1073,1,0
0000984805,3,0.6749,0.5051,-0.5380,0.0050,-1206,-489,-955,-1443,-1311,-263,830,-227,-261,97.4999,46.9809,-128.1192,1,0
0000984826,3,0.6671,0.4953,-0.5563,-0.0152,-1211,-563,-905,-1427,-1475,-155,728,-257,-311,99.1818,46.6431,-123.6667,1,0
0000984847,3,0.6580,0.4909,-0.5703,-0.0296,-1218,-638,-854,-1491,-1467,-219,653,-268,-351,101.0120,46.1762,-120.1566,1,0
0000984868,3,0.6503,0.4853,-0.5827,-0.0445,-1218,-702,-800,-1475,-1299,-271,642,-253,-339,102.3966,45.6216,-116.9511,1,0
0000984889,3,0.6413,0.4805,-0.5954,-0.0579,-1220,-765,-747,-1591,-1435,-99,654,-255,-301,104.0030,45.0733,-113.7347,1,0
0000984910,3,0.6337,0.4739,-0.6071,-0.0720,-1217,-821,-694,-1487,-1647,-3,562,-242,-298,105.1593,44.5329,-110.7365,1,0
0000984931,3,0.6237,0.4692,-0.6191,-0.0867,-1217,-821,-694,-1431,-1699,27,448,-241,-326,106.6296,43.7060,-107.5845,1,0
0000984952,3,0.6145,0.4684,-0.6275,-0.0962,-1212,-870,-650,-1643,-1519,23,357,-229,-327,107.9957,42.9267,-105.3699,1,0
0000984973,3,0.6073,0.4666,-0.6342,-0.1061,-1202,-910,-608,-1763,-1499,79,332,-191,-297,108.8895,42.1702,-103.4958,1,0
0000984994,3,0.6003,0.4661,-0.6398,-0.1141,-1195,-948,-577,-1671,-1483,7,309,-118,-270,109.7347,41.4327,-101.9564,1,0
0000985015,3,0.5956,0.4637,-0.6441,-0.1238,-1182,-980,-549,-1543,-1431,3,295,-96,-236,110.0456,40.7288,-100.6165,1,0
0000985036,3,0.5894,0.4611,-0.6496,-0.1341,-1174,-1009,-519,-1615,-1375,-31,284,-136,-216,110.5544,39.9528,-99.0124,1,0
0000985057,3,0.5834,0.4591,-0.6550,-0.1409,-1174,-1009,-519,-1655,-1391,-71,336,-131,-190,111.2090,39.4096,-97.6130,1,0
0000985078,3,0.5788,0.4547,-0.6603,-0.1494,-1166,-1034,-484,-1547,-1427,-59,350,-120,-170,111.5243,38.9298,-96.1600,1,0
0000985099,3,0.5735,0.4522,-0.6650,-0.1561,-1158,-1059,-452,-1499,-1487,-19,292,-98,-177,112.0047,38.4364,-94.8901,1,0
0000985120,3,0.5695,0.4499,-0.6682,-0.1633,-1149,-1082,-427,-1507,-1431,43,198,-93,-191,112.1773,37.8933,-93.8968,1,0
0000985141,3,0.5663,0.4491,-0.6699,-0.1696,-1137,-1099,-414,-1555,-1531,139,133,-29,-177,112.2471,37.3311,-93.2337,1,0
0000985162,3,0.5630,0.4490,-0.6711,-0.1760,-1126,-1114,-402,-1531,-1579,135,145,27,-154,112.2828,36.7063,-92.6589,1,0
0000985183,3,0.5620,0.4469,-0.6715,-0.1829,-1126,-1114,-402,-1495,-1523,175,153,25,-147,111.9475,36.2552,-92.2173,1,0
0000985204,3,0.5600,0.4464,-0.6722,-0.1879,-1114,-1131,-394,-1447,-1571,239,137,24,-138,111.8799,35.8127,-91.8132,1,0
0000985225,3,0.5593,0.4443,-0.6724,-0.1940,-1103,-1144,-384,-1411,-1571,247,122,40,-107,111.5344,35.4383,-91.4361,1,0
0000985246,3,0.5584,0.4434,-0.6725,-0.1983,-1093,-1155,-379,-1447,-1607,219,113,67,-109,111.3504,35.1122,-91.1773,1,0
0000985267,3,0.5577,0.4422,-0.6719,-0.2047,-1081,-1166,-376,-1487,-1555,159,85,67,-136,110.9398,34.6414,-90.9255,1,0
0000985288,3,0.5568,0.4428,-0.6710,-0.2088,-1068,-1179,-377,-1483,-1511,87,40,54,-142,110.7318,34.2114,-90.8486,1,0
0000985309,3,0.5558,0.4440,-0.6700,-0.2121,-1068,-1179,-377,-1563,-1459,-7,31,33,-124,110.5821,33.8073,-90.8421,1,0
0000985330,3,0.5544,0.4446,-0.6698,-0.2152,-1057,-1189,-374,-1583,-1479,-23,75,2,-116,110.5427,33.4582,-90.6920,1,0
0000985351,3,0.5526,0.4446,-0.6702,-0.2185,-1048,-1198,-367,-1579,-1531,0,91,17,-96,110.5281,33.1217,-90.4199,1,0
0000985372,3,0.5511,0.4442,-0.6706,-0.2223,-1041,-1209,-361,-1475,-1487,-39,85,11,-87,110.4575,32.7885,-90.1274,1,0
0000985393,3,0.5496,0.4439,-0.6710,-0.2250,-1033,-1215,-353,-1455,-1439,-15,84,-4,-87,110.4508,32.5361,-89.8891,1,0
0000985414,3,0.5477,0.4438,-0.6717,-0.2276,-1033,-1215,-353,-1451,-1423,-15,90,-25,-87,110.5132,32.2641,-89.5866,1,0
0000985435,3,0.5458,0.4433,-0.6728,-0.2300,-1028,-1224,-344,-1471,-1463,139,102,-25,-73,110.6136,32.0358,-89.2458,1,0
0000985456,3,0.5439,0.4423,-0.6741,-0.2328,-1021,-1231,-332,-1383,-1451,159,134,-29,-70,110.6816,31.8225,-88.8463,1,0
0000985477,3,0.5405,0.4407,-0.6765,-0.2364,-1018,-1241,-317,-1419,-1451,179,149,-62,-80,110.8863,31.5367,-88.1744,1,0
0000985498,3,0.5372,0.4393,-0.6791,-0.2392,-1012,-1249,-298,-1351,-1431,147,165,-88,-73,111.1591,31.3016,-87.5263,1,0
0000985519,3,0.5335,0.4377,-0.6822,-0.2417,-1011,-1258,-276,-1311,-1407,155,180,-102,-61,111.4983,31.0881,-86.8172,1,0
0000985540,3,0.5296,0.4357,-0.6856,-0.2443,-1011,-1258,-276,-1307,-1419,171,197,-115,-68,111.8719,30.8809,-86.0310,1,0
0000985561,3,0.5249,0.4341,-0.6893,-0.2469,-1006,-1266,-248,-1423,-1471,359,186,-140,-75,112.3397,30.6182,-85.1899,1,0
0000985582,3,0.5207,0.4322,-0.6927,-0.2492,-1004,-1275,-226,-1495,-1627,371,175,-95,-53,112.7407,30.3983,-84.4110,1,0
0000985603,3,0.5172,0.4293,-0.6961,-0.2522,-1002,-1280,-205,-1511,-1703,395,163,-50,-33,113.0131,30.2336,-83.5954,1,0
0000985624,3,0.5154,0.4272,-0.6979,-0.2544,-1002,-1284,-193,-1539,-1967,523,125,-9,-22,113.0968,30.1410,-83.1185,1,0
0000985645,3,0.5150,0.4254,-0.6988,-0.2559,-1001,-1285,-188,-1407,-2007,515,54,15,4,113.0560,30.1348,-82.8503,1,0
0000985666,3,0.5152,0.4253,-0.6987,-0.2559,-1001,-1285,-188,-1303,-1863,467,-25,8,-4,113.0246,30.1462,-82.8617,1,0
0000985687,3,0.5151,0.4261,-0.6983,-0.2561,-1000,-1286,-194,-1055,-1639,303,-17,-16,-47,113.0018,30.0699,-82.9420,1,0
0000985708,3,0.5137,0.4271,-0.6984,-0.2568,-997,-1289,-190,-1079,-1623,223,19,-42,-37,113.1203,29.8802,-82.8796,1,0
0000985729,3,0.5121,0.4270,-0.6994,-0.2573,-995,-1290,-183,-1199,-1711,211,46,-56,-29,113.2855,29.7786,-82.6677,1,0
0000985750,3,0.5105,0.4272,-0.7003,-0.2578,-993,-1295,-177,-1151,-1707,271,29,-47,-37,113.4595,29.6557,-82.4719,1,0
0000985771,3,0.5094,0.4274,-0.7008,-0.2584,-990,-1296,-175,-1015,-1679,331,26,-17,-28,113.5438,29.5477,-82.3559,1,0
0000985792,3,0.5085,0.4270,-0.7013,-0.2594,-990,-1296,-175,-1023,-1687,307,54,-14,-32,113.5773,29.4555,-82.1989,1,0
0000985813,3,0.5070,0.4262,-0.7023,-0.2609,-990,-1300,-168,-1071,-1679,343,66,-28,-33,113.6502,29.3237,-81.9129,1,0
0000985834,3,0.5056,0.4257,-0.7032,-0.2619,-986,-1303,-160,-1071,-1647,415,49,-31,-29,113.7437,29.2157,-81.6905,1,0
0000985855,3,0.5044,0.4255,-0.7040,-0.2627,-985,-1307,-154,-987,-1575,503,33,-32,-29,113.8402,29.1158,-81.4983,1,0
0000985876,3,0.5032,0.4254,-0.7046,-0.2633,-983,-1307,-149,-951,-1539,511,37,-34,-18,113.9443,29.0255,-81.3468,1,0
0000985897,3,0.5019,0.4243,-0.7059,-0.2640,-985,-1309,-138,-911,-1555,479,84,-40,3,114.0710,28.9885,-81.0546,1,0
0000985918,3,0.5001,0.4220,-0.7082,-0.2650,-985,-1309,-138,-931,-1647,503,104,-39,9,114.2497,28.9925,-80.5533,1,0
0000985939,3,0.4988,0.4207,-0.7097,-0.2656,-984,-1309,-127,-1011,-1791,559,63,-38,3,114.3891,28.9852,-80.2313,1,0
0000985960,3,0.4983,0.4198,-0.7106,-0.2654,-988,-1309,-123,-1271,-1983,543,4,-15,41,114.4935,29.0398,-80.0604,1,0
0000985981,3,0.4991,0.4190,-0.7112,-0.2636,-993,-1301,-122,-1395,-1975,387,-16,-15,100,114.5723,29.2779,-80.0546,1,0
0000986002,3,0.4996,0.4186,-0.7122,-0.2607,-1004,-1295,-123,-1263,-1711,359,-57,-65,83,114.8031,29.5617,-80.0415,1,0
0000986023,3,0.4998,0.4193,-0.7127,-0.2577,-1008,-1290,-127,-1031,-1671,423,-87,-45,62,115.0441,29.7551,-80.1337,1,0
0000986044,3,0.5005,0.4212,-0.7124,-0.2543,-1008,-1290,-127,-1119,-1659,455,-104,-40,49,115.2550,29.9270,-80.4174,1,0
0000986065,3,0.5008,0.4223,-0.7123,-0.2517,-1015,-1287,-133,-1279,-1691,447,-80,-39,49,115.4264,30.0613,-80.5852,1,0
0000986086,3,0.5010,0.4231,-0.7125,-0.2496,-1018,-1281,-135,-1183,-1699,399,-44,-43,45,115.5944,30.1848,-80.6787,1,0
0000986107,3,0.5007,0.4234,-0.7132,-0.2479,-1023,-1278,-135,-1167,-1707,395,-29,-55,33,115.7977,30.2810,-80.6607,1,0
0000986128,3,0.5000,0.4241,-0.7138,-0.2462,-1025,-1277,-132,-1199,-1663,339,-42,-66,20,116.0285,30.3344,-80.6489,1,0
0000986149,3,0.4989,0.4251,-0.7146,-0.2443,-1025,-1277,-132,-1183,-1663,375,-15,-67,12,116.3360,30.3546,-80.6132,1,0
0000986170,3,0.4976,0.4254,-0.7156,-0.2436,-1028,-1274,-129,-1183,-1683,419,7,-69,-8,116.5770,30.3257,-80.4758,1,0
0000986191,3,0.4960,0.4259,-0.7165,-0.2432,-1027,-1276,-123,-1215,-1679,447,11,-66,-18,116.8083,30.2396,-80.3272,1,0
0000986212,3,0.4945,0.4261,-0.7175,-0.2431,-1028,-1276,-118,-1215,-1659,439,18,-62,-13,117.0203,30.1665,-80.1522,1,0
0000986233,3,0.4931,0.4260,-0.7186,-0.2430,-1027,-1278,-109,-1187,-1643,411,28,-54,-11,117.2211,30.1042,-79.9629,1,0
0000986254,3,0.4913,0.4259,-0.7199,-0.2429,-1027,-1280,-105,-1207,-1639,411,34,-60,-8,117.4591,30.0308,-79.7221,1,0
0000986275,3,0.4897,0.4256,-0.7212,-0.2429,-1027,-1280,-105,-1239,-1671,419,42,-64,-9,117.6778,29.9728,-79.4794,1,0
0000986296,3,0.4883,0.4252,-0.7223,-0.2429,-1027,-1280,-96,-1255,-1695,423,36,-52,-3,117.8751,29.9221,-79.2588,1,0
0000986317,3,0.4873,0.4250,-0.7232,-0.2427,-1027,-1281,-90,-1259,-1703,435,13,-33,0,118.0173,29.9038,-79.1084,1,0
0000986338,3,0.4869,0.4251,-0.7235,-0.2424,-1028,-1281,-88,-1235,-1703,423,-8,-18,2,118.1002,29.9003,-79.0633,1,0
0000986359,3,0.4866,0.4254,-0.7237,-0.2419,-1028,-1280,-89,-1223,-1691,431,-15,-25,0,118.1776,29.8958,-79.0668,1,0
0000986380,3,0.4860,0.4261,-0.7238,-0.2414,-1028,-1282,-88,-1191,-1659,459,-24,-26,-7,118.2939,29.8598,-79.0730,1,0
0000986401,3,0.4857,0.4267,-0.7239,-0.2408,-1028,-1282,-88,-1227,-1635,439,-13,-23,5,118.3773,29.8453,-79.0937,1,0
0000986422,3,0.4853,0.4265,-0.7244,-0.2404,-1028,-1280,-88,-1219,-1659,423,14,-24,10,118.4693,29.8692,-79.0172,1,0
0000986443,3,0.4848,0.4261,-0.7250,-0.2403,-1031,-1280,-84,-1215,-1667,411,20,-18,5,118.5537,29.8882,-78.9099,1,0
0000986464,3,0.4844,0.4257,-0.7255,-0.2403,-1030,-1280,-81,-1215,-1719,443,20,-15,0,118.6175,29.8870,-78.8102,1,0
0000986485,3,0.4839,0.4256,-0.7259,-0.2404,-1030,-1282,-78,-1203,-1727,431,-1,-9,-11,118.6712,29.8612,-78.7319,1,0
0000986506,3,0.4837,0.4262,-0.7256,-0.2405,-1027,-1281,-81,-1223,-1671,443,-25,0,-23,118.6671,29.8034,-78.7855,1,0
0000986527,3,0.4838,0.4270,-0.7251,-0.2407,-1027,-1281,-81,-1191,-1639,439,-32,9,-25,118.6286,29.7377,-78.8936,1,0
0000986548,3,0.4839,0.4275,-0.7246,-0.2410,-1026,-1285,-84,-1195,-1675,447,-13,10,-25,118.5739,29.6743,-78.9750,1,0
0000986569,3,0.4838,0.4278,-0.7243,-0.2416,-1022,-1284,-84,-1195,-1687,447,8,8,-21,118.5262,29.6096,-78.9979,1,0
0000986590,3,0.4835,0.4276,-0.7243,-0.2423,-1022,-1287,-84,-1167,-1659,459,14,5,-13,118.4891,29.5540,-78.9472,1,0
0000986611,3,0.4833,0.4275,-0.7244,-0.2428,-1020,-1287,-81,-1207,-1675,459,14,-2,-14,118.4731,29.5159,-78.9131,1,0
0000986632,3,0.4829,0.4275,-0.7245,-0.2431,-1020,-1288,-81,-1207,-1699,451,12,-9,-19,118.4912,29.4678,-78.8713,1,0
0000986653,3,0.4827,0.4276,-0.7245,-0.2434,-1020,-1288,-81,-1143,-1667,431,-2,3,-10,118.4858,29.4203,-78.8651,1,0
0000986674,3,0.4829,0.4278,-0.7243,-0.2435,-1017,-1291,-81,-1171,-1619,439,-11,5,-1,118.4610,29.4128,-78.9029,1,0
0000986695,3,0.4829,0.4281,-0.7241,-0.2435,-1019,-1291,-84,-1191,-1659,443,-5,0,-8,118.4476,29.3971,-78.9415,1,0
0000986716,3,0.4828,0.4283,-0.7239,-0.2436,-1016,-1290,-82,-1171,-1687,431,-11,-1,-8,118.4467,29.3671,-78.9641,1,0
0000986737,3,0.4830,0.4288,-0.7236,-0.2433,-1018,-1292,-87,-1175,-1627,435,-27,5,4,118.4360,29.3665,-79.0402,1,0
0000986758,3,0.4833,0.4292,-0.7233,-0.2429,-1018,-1290,-86,-1191,-1643,475,-23,0,2,118.4303,29.3820,-79.1187,1,0
0000986779,3,0.4834,0.4296,-0.7231,-0.2426,-1018,-1290,-86,-1203,-1635,439,-20,-4,0,118.4399,29.3796,-79.1763,1,0
0000986800,3,0.4836,0.4299,-0.7230,-0.2422,-1018,-1290,-90,-1195,-1655,455,-19,1,15,118.4537,29.4073,-79.2343,1,0
0000986821,3,0.4841,0.4297,-0.7229,-0.2416,-1019,-1288,-89,-1167,-1683,475,-3,7,18,118.4417,29.4876,-79.2708,1,0
0000986842,3,0.4845,0.4296,-0.7228,-0.2413,-1022,-1285,-94,-1211,-1675,451,-16,9,18,118.4222,29.5430,-79.3069,1,0
0000986863,3,0.4850,0.4297,-0.7227,-0.2407,-1023,-1286,-94,-1239,-1655,419,-18,2,24,118.4177,29.6155,-79.3718,1,0
0000986884,3,0.4854,0.4295,-0.7227,-0.2401,-1025,-1282,-96,-1231,-1691,407,-5,4,19,118.4246,29.6903,-79.4026,1,0
0000986905,3,0.4857,0.4295,-0.7226,-0.2397,-1025,-1282,-96,-1191,-1695,407,-17,6,7,118.4163,29.7383,-79.4377,1,0
0000986926,3,0.4862,0.4300,-0.7222,-0.2392,-1025,-1282,-95,-1223,-1639,399,-32,5,7,118.3959,29.7673,-79.5470,1,0
0000986947,3,0.4865,0.4305,-0.7218,-0.2386,-1027,-1282,-101,-1227,-1607,391,-32,0,9,118.3953,29.7963,-79.6539,1,0
0000986968,3,0.4868,0.4309,-0.7216,-0.2382,-1027,-1280,-101,-1223,-1651,407,-17,1,4,118.3983,29.8173,-79.7263,1,0
0000986989,3,0.4870,0.4311,-0.7213,-0.2380,-1027,-1280,-103,-1239,-1679,399,-13,5,0,118.3846,29.8230,-79.7767,1,0
0000987010,3,0.4872,0.4314,-0.7211,-0.2378,-1027,-1280,-103,-1235,-1639,375,-16,2,4,118.3694,29.8328,-79.8342,1,0
0000987031,3,0.4875,0.4316,-0.7209,-0.2374,-1027,-1280,-105,-1255,-1667,407,-15,8,10,118.3542,29.8636,-79.9046,1,0
0000987052,3,0.4880,0.4318,-0.7206,-0.2372,-1027,-1280,-107,-1223,-1747,387,-21,13,3,118.3208,29.8916,-79.9757,1,0
0000987073,3,0.4885,0.4327,-0.7198,-0.2367,-1028,-1280,-112,-1131,-1887,319,-73,9,-3,118.2704,29.8981,-80.1563,1,0
0000987094,3,0.4891,0.4365,-0.7178,-0.2346,-1023,-1278,-132,-1327,-2239,303,-262,-35,-37,118.3166,29.8192,-80.6737,1,0
0000987115,3,0.4904,0.4467,-0.7124,-0.2292,-1017,-1277,-186,-1527,-2151,299,-678,-14,-87,118.4335,29.6034,-82.0680,1,0
0000987136,3,0.4961,0.4659,-0.6992,-0.2190,-1017,-1277,-186,-1455,-1775,299,-829,116,-59,118.1855,29.3150,-85.1509,1,0
0000987157,3,0.5055,0.4760,-0.6879,-0.2113,-1008,-1263,-264,-911,-1239,323,-725,186,61,117.3647,29.6237,-87.6408,1,0
0000987178,3,0.5166,0.4802,-0.6793,-0.2025,-1014,-1238,-331,-811,-783,367,-658,71,214,116.4824,30.4944,-89.6682,1,0
0000987199,3,0.5239,0.4863,-0.6732,-0.1894,-1034,-1201,-380,-851,-767,379,-552,6,350,116.3876,31.4036,-91.4738,1,0
0000987220,3,0.5354,0.4814,-0.6711,-0.1767,-1076,-1150,-412,-959,-811,179,-414,-86,577,115.8253,33.2654,-92.5247,1,0
0000987241,3,0.5430,0.4789,-0.6714,-0.1579,-1138,-1079,-412,-1067,-767,47,-257,-229,802,116.2065,35.3076,-93.4106,1,0
0000987262,3,0.5548,0.4609,-0.6800,-0.1318,-1138,-1079,-412,-1235,-787,51,-112,-365,1006,116.8483,39.2793,-93.0025,1,0
0000987283,3,0.5666,0.4353,-0.6910,-0.1096,-1223,-994,-390,-1475,-859,139,-74,-430,1197,117.3861,43.4419,-91.6496,1,0
0000987304,3,0.5736,0.4176,-0.7003,-0.0791,-1313,-879,-353,-1963,-899,63,-74,-451,1385,119.1965,47.5023,-90.5656,1,0
0000987325,3,0.5849,0.3850,-0.7122,-0.0493,-1408,-740,-313,-2247,-1139,119,-218,-567,1507,120.8473,52.6761,-88.1694,1,0
0000987346,3,0.5887,0.3703,-0.7185,-0.0064,-1489,-571,-272,-2635,-1399,43,-700,-636,1538,124.5607,57.2725,-86.5548,1,0
0000987367,3,0.5950,0.3480,-0.7229,0.0484,-1550,-397,-245,-3131,-1775,-539,-841,-549,1491,129.8579,63.3630,-83.6240,1,0
0000987388,3,0.6014,0.3311,-0.7219,0.0872,-1550,-397,-245,-2835,-1919,-699,-618,-198,1343,133.8214,67.8163,-81.2618,1,0
0000987409,3,0.6118,0.3218,-0.7132,0.1162,-1576,-252,-249,-2463,-1603,-263,-423,245,1011,134.5307,71.3380,-82.0560,1,0
0000987430,3,0.6252,0.3156,-0.7015,0.1316,-1576,-158,-302,-2163,-911,203,-492,532,503,131.1508,73.8036,-86.1087,1,0
0000987451,3,0.6354,0.3231,-0.6873,0.1394,-1560,-126,-361,-1871,-927,375,-454,484,10,125.0531,74.4887,-93.4876,1,0
0000987472,3,0.6414,0.3314,-0.6773,0.1415,-1549,-123,-397,-1767,-743,343,-435,239,-130,120.4217,74.2955,-99.0363,1,0
0000987493,3,0.6416,0.3346,-0.6752,0.1429,-1547,-121,-396,-1795,-567,267,-486,-11,-115,119.8593,74.1759,-100.0064,1,0
0000987514,3,0.6360,0.3455,-0.6732,0.1514,-1547,-121,-396,-1827,-455,311,-556,-192,-100,121.6168,73.9338,-99.9452,1,0
0000987535,3,0.6299,0.3512,-0.6744,0.1583,-1555,-112,-379,-1923,-859,271,-598,-222,-114,124.3123,73.9081,-98.3593,1,0
0000987556,3,0.6224,0.3630,-0.6726,0.1685,-1561,-104,-358,-1815,-1035,239,-624,-215,-106,126.7917,73.6666,-97.8419,1,0
0000987577,3,-0.6122,-0.3767,0.6714,-0.1805,-1569,-97,-337,-1903,-1031,207,-720,-287,-157,130.2653,73.3362,-96.6664,1,0
0000987598,3,-0.6005,-0.3924,0.6698,-0.1918,-1576,-100,-305,-2267,-687,139,-920,-354,-282,133.7457,72.7363,-95.6506,1,0
0000987619,3,-0.5856,-0.4132,0.6664,-0.2054,-1576,-100,-305,-2251,-563,-123,-994,-332,-310,137.5489,71.8644,-95.0361,1,0
0000987640,3,-0.5727,-0.4306,0.6627,-0.2178,-1586,-105,-276,-2107,-415,-207,-893,-323,-208,140.6044,71.1977,-94.7826,1,0
0000987661,3,-0.5603,-0.4454,0.6590,-0.2309,-1593,-105,-246,-1955,-335,-191,-739,-312,-152,143.7284,70.7737,-94.3057,1,0
0000987682,3,-0.5486,-0.4583,0.6559,-0.2422,-1601,-106,-220,-2055,-391,-355,-677,-291,-184,146.5772,70.3495,-93.7837,1,0
0000987703,3,-0.5344,-0.4739,0.6526,-0.2527,-1607,-118,-197,-2315,-243,-487,-598,-231,-252,149.5794,69.5661,-93.3587,1,0
0000987724,3,-0.5239,-0.4857,0.6502,-0.2586,-1610,-131,-181,-2323,-167,-575,-496,-193,-242,151.4494,68.8280,-93.2951,1,0
0000987745,3,-0.5156,-0.4934,0.6492,-0.2632,-1610,-131,-181,-2247,-383,-495,-305,-196,-152,153.1536,68.3044,-92.8578,1,0
0000987766,3,-0.5096,-0.4975,0.6492,-0.2671,-1613,-141,-164,-2151,-459,-435,-199,-155,-64,154.6270,68.0436,-92.2043,1,0
0000987787,3,-0.5062,-0.4996,0.6489,-0.2702,-1615,-142,-152,-2171,-515,-435,-97,-79,-10,155.5616,67.9701,-91.8009,1,0
0000987808,3,-0.5047,-0.5004,0.6485,-0.2728,-1617,-139,-146,-2207,-531,-455,-49,-38,48,156.1276,68.0552,-91.5571,1,0
0000987829,3,-0.5060,-0.4990,0.6475,-0.2752,-1618,-124,-146,-2083,-575,-467,15,13,170,156.1741,68.4199,-91.5613,1,0
0000987850,3,-0.5112,-0.4938,0.6461,-0.2781,-1618,-91,-153,-2003,-843,-435,151,57,338,155.7216,69.2668,-91.6844,1,0
0000987871,3,-0.5196,-0.4851,0.6447,-0.2811,-1618,-91,-153,-2051,-975,-339,249,104,442,154.8679,70.5183,-91.8248,1,0
0000987892,3,-0.5303,-0.4750,0.6428,-0.2827,-1616,-45,-166,-2067,-911,-327,321,215,439,153.2049,71.8675,-92.5176,1,0
0000987913,3,-0.5456,-0.4622,0.6399,-0.2815,-1612,-6,-192,-2127,-859,-351,400,280,406,149.6711,73.4238,-94.5271,1,0
0000987934,3,-0.5592,-0.4507,0.6383,-0.2771,-1602,26,-226,-2163,-951,-231,532,336,370,145.7809,74.4938,-96.7929,1,0
0000987955,3,-0.5736,-0.4383,0.6374,-0.2694,-1595,46,-272,-2059,-1043,-135,611,381,307,141.0011,75.3290,-99.6043,1,0
0000987976,3,-0.5879,-0.4267,0.6364,-0.2593,-1581,53,-322,-2019,-1075,-99,627,431,219,135.4310,75.8418,-103.0914,1,0
0000987997,3,-0.6019,-0.4165,0.6350,-0.2469,-1581,53,-322,-1915,-1071,-39,626,492,149,129.2505,75.9588,-107.1594,1,0
0000988018,3,-0.6161,-0.4077,0.6322,-0.2334,-1567,48,-382,-1831,-1023,-59,553,558,118,122.4396,75.7814,-111.9352,1,0
0000988039,3,-0.6334,-0.3986,0.6266,-0.2176,-1547,44,-444,-1835,-931,-59,476,568,133,113.9015,75.2823,-118.2232,1,0
0000988060,3,-0.6467,-0.3921,0.6207,-0.2066,-1527,43,-508,-1803,-847,-151,411,561,154,107.3225,74.7734,-123.2473,1,0
0000988081,3,-0.6589,-0.3861,0.6148,-0.1969,-1503,40,-560,-1727,-827,-283,363,486,136,101.4845,74.2162,-127.7040,1,0
0000988102,3,-0.6681,-0.3812,0.6106,-0.1885,-1490,35,-596,-1687,-771,-323,269,310,50,97.3946,73.6528,-130.6400,1,0
0000988123,3,-0.6736,-0.3782,0.6083,-0.1823,-1490,35,-596,-1651,-695,-271,161,158,-5,95.1972,73.2063,-132.0418,1,0
0000988144,3,-0.6761,-0.3765,0.6078,-0.1781,-1483,25,-611,-1759,-671,-243,88,35,-1,94.3660,72.9337,-132.3651,1,0
0000988165,3,-0.6758,-0.3749,0.6092,-0.1775,-1485,26,-611,-2127,-691,-255,56,-79,24,94.6283,73.0505,-131.8930,1,0
0000988186,3,-0.6739,-0.3735,0.6117,-0.1790,-1492,28,-597,-2103,-571,-243,-12,-179,32,95.5215,73.3938,-130.9919,1,0
0000988207,3,-0.6697,-0.3723,0.6159,-0.1834,-1507,40,-566,-2091,-751,-43,-78,-320,58,97.4762,74.0388,-129.2751,1,0
0000988228,3,-0.6641,-0.3711,0.6205,-0.1905,-1522,57,-531,-2083,-795,11,-154,-348,102,100.0331,74.8988,-127.1981,1,0
0000988249,3,-0.6580,-0.3698,0.6241,-0.2019,-1522,57,-531,-2159,-755,-35,-231,-301,187,102.6130,76.0895,-125.4522,1,0
0000988270,3,-0.6530,-0.3693,0.6258,-0.2136,-1537,90,-500,-2275,-683,-27,-334,-339,215,104.5924,77.1675,-124.4142,1,0
0000988291,3,-0.6465,-0.3701,0.6268,-0.2284,-1552,130,-458,-2423,-719,31,-475,-394,243,107.2695,78.3924,-123.0813,1,0
0000988312,3,-0.6385,-0.3723,0.6265,-0.2475,-1566,184,-407,-2271,-823,119,-664,-440,323,110.6187,79.8246,-121.5908,1,0
0000988333,3,-0.6281,-0.3763,0.6244,-0.2722,-1582,251,-334,-2111,-875,331,-968,-577,357,115.3173,81.5563,-119.4322,1,0
0000988354,3,-0.6081,-0.3865,0.6211,-0.3083,-1582,251,-334,-2019,-743,455,-1159,-674,205,128.9305,83.5689,-110.0283,1,0
0000988375,3,-0.5866,-0.3993,0.6198,-0.3350,-1600,306,-236,-2031,-499,435,-1157,-712,-59,148.6430,84.1302,-94.0129,1,0
0000988396,3,-0.5624,-0.4142,0.6211,-0.3556,-1628,313,-133,-2191,-111,315,-1028,-706,-321,168.0913,83.2754,-77.9923,1,0
0000988417,3,-0.5363,-0.4292,0.6256,-0.3699,-1658,278,-34,-2199,131,287,-872,-742,-519,180.9128,81.3016,-68.1269,1,0
0000988438,3,-0.5077,-0.4428,0.6342,-0.3795,-1689,211,75,-2311,283,323,-644,-875,-725,189.1752,78.5190,-62.3376,1,0
0000988459,3,-0.4777,-0.4528,0.6474,-0.3843,-1712,116,186,-2451,363,387,-431,-924,-807,194.6884,75.1299,-58.6122,1,0
0000988480,3,-0.4423,-0.4576,0.6696,-0.3829,-1712,116,186,-2567,327,363,-21,-927,-847,198.8833,70.5266,-55.2901,1,0
0000988501,3,-0.4161,-0.4547,0.6905,-0.3784,-1722,18,298,-2555,143,199,201,-1003,-784,201.4378,66.7622,-52.5122,1,0
0000988522,3,-0.3910,-0.4472,0.7117,-0.3750,-1713,-66,422,-2395,3,275,254,-1043,-663,204.0353,63.1134,-49.3833,1,0
0000988543,3,-0.3675,-0.4378,0.7308,-0.3731,-1695,-131,540,-2463,-179,407,270,-972,-522,206.3317,59.7486,-46.5480,1,0
0000988564,3,-0.3470,-0.4286,0.7463,-0.3728,-1666,-175,642,-2503,-531,683,158,-797,-382,208.2770,56.8744,-44.2091,1,0
0000988585,3,-0.3269,-0.4208,0.7600,-0.3721,-1644,-212,705,-2299,-1011,855,91,-543,-310,209.7017,54.1038,-42.5184,1,0
0000988606,3,-0.3160,-0.4195,0.7657,-0.3713,-1644,-212,705,-2167,-1103,763,-108,-290,-228,210.0490,52.6971,-42.2928,1,0
0000988627,3,-0.3085,-0.4270,0.7644,-0.3717,-1632,-249,729,-2091,-831,339,-480,15,-144,209.7431,52.1025,-43.5821,1,0
0000988648,3,-0.3055,-0.4424,0.7559,-0.3736,-1639,-287,699,-1987,279,-263,-697,304,26,208.8668,52.4171,-46.2394,1,0
0000988669,3,-0.3121,-0.4588,0.7420,-0.3762,-1663,-291,621,-2123,879,-571,-453,765,328,207.5096,53.9348,-49.2523,1,0
0000988690,3,-0.3378,-0.4718,0.7230,-0.3750,-1703,-243,506,-2191,1255,-463,-18,1036,526,204.4835,57.3835,-52.7100,1,0
0000988711,3,-0.3701,-0.4722,0.7089,-0.3709,-1738,-148,373,-2303,903,-203,384,1173,723,201.3611,61.0427,-54.6418,1,0
0000988732,3,-0.4092,-0.4642,0.6961,-0.3641,-1738,-148,373,-2619,647,55,794,1246,838,197.6243,65.1816,-56.0704,1,0
0000988753,3,-0.4541,-0.4454,0.6869,-0.3516,-1759,-31,226,-3143,367,559,1342,1282,881,192.9964,69.5534,-56.8761,1,0
0000988774,3,-0.5035,-0.4160,0.6811,-0.3310,-1756,81,63,-3319,71,623,1878,1382,820,186.6641,73.9916,-57.8063,1,0
0000988795,3,-0.5661,-0.3735,0.6732,-0.2945,-1729,155,-129,-3431,11,403,1984,1469,667,171.8870,79.1970,-64.7632,1,0
0000988816,3,-0.6125,-0.3409,0.6645,-0.2588,-1678,168,-331,-3795,-363,91,1945,1503,460,147.4807,82.1187,-82.8325,1,0
0000988837,3,-0.6540,-0.3124,0.6525,-0.2213,-1613,140,-518,-3443,-1051,223,1741,1501,318,111.2855,82.6105,-113.1506,1,0
0000988858,3,-0.6896,-0.2881,0.6377,-0.1863,-1613,140,-518,-3319,-899,335,1459,1410,261,82.6564,80.7277,-136.6819,1,0
0000988879,3,-0.7213,-0.2686,0.6192,-0.1553,-1536,98,-685,-2759,-739,219,1148,1500,204,65.5336,77.6223,-149.5633,1,0
0000988900,3,-0.7508,-0.2539,0.5964,-0.1270,-1447,57,-843,-2131,-439,-219,938,1488,127,55.1876,73.7494,-156.3872,1,0
0000988921,3,-0.7797,-0.2453,0.5678,-0.0976,-1356,9,-969,-1631,7,-343,584,1246,-94,49.1752,68.9553,-159.3783,1,0
0000988942,3,-0.7958,-0.2439,0.5489,-0.0765,-1277,-48,-1056,-1559,155,-307,531,991,-242,47.5486,65.6459,-159.2592,1,0
0000988963,3,-0.8071,-0.2431,0.5353,-0.0538,-1218,-132,-1115,-1403,139,-267,669,765,-324,47.3341,62.9059,-157.6090,1,0
0000988984,3,-0.8150,-0.2393,0.5270,-0.0273,-1218,-132,-1115,-1167,-251,-227,910,585,-318,47.5908,60.6979,-154.8832,1,0
0000989005,3,-0.8200,-0.2314,0.5235,0.0011,-1173,-234,-1141,-1119,-607,-155,1029,314,-202,47.8251,59.0934,-151.6266,1,0
0000989026,3,-0.8218,-0.2181,0.5255,0.0319,-1153,-327,-1142,-1191,-1183,-35,886,89,-80,48.0147,58.1810,-147.7231,1,0
0000989047,3,-0.8202,-0.2083,0.5306,0.0481,-1153,-387,-1122,-1291,-1391,19,603,-92,13,48.2889,58.2505,-145.2374,1,0
0000989068,3,-0.8173,-0.2013,0.5370,0.0555,-1172,-407,-1098,-1427,-1463,87,313,-239,82,48.6404,58.8133,-143.6553,1,0
0000989089,3,-0.8126,-0.1969,0.5457,0.0560,-1172,-407,-1098,-1675,-1339,95,72,-387,129,49.3881,59.8594,-142.4534,1,0
0000989110,3,-0.8063,-0.1948,0.5562,0.0505,-1206,-401,-1061,-1895,-1247,247,-134,-514,178,50.4887,61.3098,-141.6063,1,0
0000989131,3,-0.7971,-0.1949,0.5705,0.0349,-1256,-367,-1020,-1859,-1199,355,-379,-636,258,52.0811,63.6210,-141.2668,1,0
0000989152,3,-0.7883,-0.1970,0.5826,0.0169,-1312,-310,-969,-1735,-1355,375,-581,-677,288,53.6082,65.7710,-141.3598,1,0
0000989173,3,-0.7793,-0.2025,0.5930,-0.0063,-1368,-232,-921,-1683,-1443,299,-811,-681,279,55.1464,67.9475,-142.1615,1,0
0000989194,3,-0.7690,-0.2121,0.6022,-0.0331,-1416,-146,-864,-1707,-1383,251,-1026,-682,221,57.1617,70.0745,-143.1122,1,0
0000989215,3,-0.7572,-0.2267,0.6093,-0.0630,-1416,-146,-864,-1903,-1147,119,-1274,-698,70,59.8564,72.0506,-144.0829,1,0
0000989236,3,-0.7428,-0.2467,0.6153,-0.0939,-1464,-62,-803,-2091,-911,-19,-1419,-717,-81,64.2488,73.8229,-143.9071,1,0
0000989257,3,-0.7207,-0.2774,0.6214,-0.1323,-1509,5,-726,-2119,-799,-75,-1451,-749,-211,72.6065,75.7157,-141.3428,1,0
0000989278,3,-0.7006,-0.3026,0.6260,-0.1603,-1557,50,-642,-2063,-651,-63,-1346,-762,-282,81.5814,76.9546,-136.8842,1,0
0000989299,3,-0.6793,-0.3258,0.6312,-0.1843,-1600,69,-549,-2103,-587,-55,-1188,-760,-327,92.4705,77.8677,-130.0596,1,0
0000989320,3,-0.6575,-0.3467,0.6368,-0.2047,-1644,64,-458,-2151,-475,-95,-1013,-768,-373,104.7627,78.3559,-121.3881,1,0
0000989341,3,-0.6351,-0.3652,0.6433,-0.2222,-1644,64,-458,-2023,-423,-111,-909,-786,-381,117.9547,78.3714,-111.4018,1,0
0000989362,3,-0.6064,-0.3850,0.6527,-0.2410,-1681,47,-358,-1907,-407,-59,-773,-820,-396,134.2891,77.7221,-98.5812,1,0
0000989383,3,-0.5832,-0.3979,0.6612,-0.2536,-1715,17,-259,-1895,-359,31,-635,-820,-401,146.0177,76.6711,-89.2492,1,0
0000989404,3,-0.5607,-0.4079,0.6707,-0.2635,-1741,-25,-157,-2035,-331,95,-473,-819,-389,155.9115,75.2511,-81.2902,1,0
0000989425,3,-0.5395,-0.4135,0.6815,-0.2711,-1761,-69,-57,-2255,-371,163,-262,-816,-336,164.2075,73.6504,-74.3551,1,0
0000989446,3,-0.5205,-0.4145,0.6933,-0.2767,-1774,-107,41,-2475,-427,227,-84,-789,-266,171.0965,72.0218,-68.2181,1,0
0000989467,3,-0.4995,-0.4104,0.7088,-0.2825,-1774,-107,41,-2383,-623,275,53,-796,-169,178.4116,70.0244,-61.2531,1,0
0000989488,3,-0.4826,-0.4058,0.7202,-0.2893,-1780,-135,145,-2327,-887,387,-78,-818,-86,183.9061,68.4253,-56.1400,1,0
0000989509,3,-0.4650,-0.4055,0.7278,-0.2994,-1777,-156,241,-2343,-855,451,-356,-721,-65,188.5975,66.8839,-52.5712,1,0
0000989530,3,-0.4480,-0.4113,0.7302,-0.3113,-1771,-178,311,-2287,-559,247,-604,-563,-53,192.0037,65.5597,-51.0410,1,0
0000989551,3,-0.4325,-0.4205,0.7287,-0.3243,-1764,-201,361,-2343,-275,11,-688,-432,15,194.6968,64.5539,-50.6569,1,0
0000989572,3,-0.4172,-0.4312,0.7241,-0.3400,-1757,-211,390,-2327,-207,-27,-586,-306,87,197.4927,63.8292,-50.5997,1,0
0000989593,3,-0.4095,-0.4374,0.7196,-0.3509,-1757,-211,390,-2215,-71,119,-474,-202,156,199.3301,63.6832,-50.5036,1,0
0000989614,3,-0.4040,-0.4430,0.7140,-0.3616,-1753,-212,406,-2175,-43,171,-504,-147,186,201.0199,63.8002,-50.4588,1,0
0000989635,3,-0.3986,-0.4505,0.7069,-0.3722,-1750,-208,413,-2127,-147,187,-574,-87,171,202.3965,64.0108,-50.9125,1,0
0000989656,3,-0.3939,-0.4588,0.6989,-0.3819,-1749,-210,411,-2247,-227,275,-552,-40,150,203.4072,64.2990,-51.7305,1,0
0000989677,3,-0.3907,-0.4659,0.6916,-0.3898,-1748,-207,403,-2451,-159,315,-417,3,146,204.1360,64.6453,-52.5204,1,0
0000989698,3,-0.3910,-0.4701,0.6849,-0.3963,-1750,-193,392,-2487,-211,307,-147,66,185,204.7469,65.2517,-52.9342,1,0
0000989719,3,-0.3945,-0.4702,0.6808,-0.3998,-1750,-193,392,-2523,-343,259,-58,99,215,205.1591,65.9398,-52.7877,1,0
0000989740,3,-0.3984,-0.4705,0.6763,-0.4032,-1750,-174,379,-2503,-359,175,-112,110,207,205.4945,66.6736,-52.7308,1,0
0000989761,3,-0.4011,-0.4725,0.6708,-0.4073,-1755,-156,363,-2399,-267,111,-208,100,209,205.7840,67.3704,-52.9798,1,0
0000989782,3,-0.4032,-0.4749,0.6648,-0.4122,-1754,-139,352,-2243,-95,-23,-184,64,207,206.2314,68.0676,-53.1916,1,0
0000989803,3,-0.4047,-0.4761,0.6595,-0.4179,-1755,-121,350,-2071,-163,-27,-120,-8,159,207.1452,68.7017,-52.9217,1,0
0000989824,3,-0.4041,-0.4761,0.6572,-0.4220,-1755,-121,350,-2055,-243,-3,-111,-81,105,208.1641,68.9114,-52.3076,1,0
0000989845,3,-0.4020,-0.4761,0.6559,-0.4260,-1752,-114,361,-1995,-291,91,-124,-109,71,209.2817,68.9128,-51.6311,1,0
0000989866,3,-0.3998,-0.4763,0.6546,-0.4299,-1750,-109,373,-2095,-307,191,-114,-97,72,210.3446,68.8925,-51.0088,1,0
0000989887,3,-0.3986,-0.4761,0.6534,-0.4331,-1749,-105,380,-2239,-315,255,-63,-58,75,211.2522,68.9400,-50.4139,1,0
0000989908,3,-0.3994,-0.4748,0.6526,-0.4349,-1749,-94,380,-2199,-351,267,48,8,74,211.9020,69.1162,-49.8085,1,0
0000989929,3,-0.4021,-0.4725,0.6527,-0.4348,-1750,-85,378,-2023,-347,267,122,32,74,212.1546,69.3551,-49.2559,1,0
0000989950,3,-0.4048,-0.4700,0.6531,-0.4344,-1750,-85,378,-2027,-355,311,104,15,51,212.3623,69.5600,-48.6917,1,0
0000989971,3,-0.4056,-0.4689,0.6536,-0.4341,-1752,-80,376,-2155,-291,355,22,-9,-3,212.4735,69.5992,-48.4214,1,0
0000989992,3,-0.4048,-0.4692,0.6540,-0.4339,-1751,-84,380,-2271,-187,351,-33,-27,-67,212.3917,69.4924,-48.5353,1,0
0000990013,3,-0.4022,-0.4704,0.6554,-0.4330,-1752,-94,384,-2331,-143,287,-12,-52,-101,212.0978,69.1481,-48.9100,1,0
0000990034,3,-0.3999,-0.4704,0.6576,-0.4317,-1752,-109,395,-2307,-83,179,38,-81,-120,211.9280,68.7590,-49.0010,1,0
0000990055,3,-0.3975,-0.4693,0.6609,-0.4300,-1751,-121,406,-2343,-87,195,81,-104,-129,211.8545,68.2930,-48.8532,1,0
0000990076,3,-0.3946,-0.4680,0.6649,-0.4280,-1751,-121,406,-2515,-67,207,80,-126,-155,211.8039,67.7196,-48.6411,1,0
0000990097,3,-0.3915,-0.4668,0.6691,-0.4257,-1750,-138,423,-2727,31,103,132,-98,-174,211.6564,67.1054,-48.5012,1,0
0000990118,3,-0.3900,-0.4644,0.6742,-0.4214,-1749,-149,434,-2735,-31,19,279,-32,-188,211.1609,66.5438,-48.3839,1,0
0000990139,3,-0.3922,-0.4593,0.6819,-0.4127,-1752,-159,437,-2699,-51,-11,390,55,-177,209.9220,66.0490,-48.2234,1,0
0000990160,3,-0.3980,-0.4542,0.6874,-0.4035,-1757,-158,421,-2667,-47,-51,478,206,-123,208.3694,66.0229,-48.2669,1,0
0000990181,3,-0.4079,-0.4495,0.6909,-0.3928,-1767,-149,383,-2511,-75,-67,486,365,-73,206.1539,66.4487,-48.7898,1,0
0000990202,3,-0.4193,-0.4466,0.6921,-0.3818,-1767,-149,383,-2395,-131,-43,383,437,-78,203.3334,67.1239,-50.0639,1,0
0000990223,3,-0.4291,-0.4477,0.6911,-0.3712,-1777,-146,330,-2255,-223,11,108,496,-142,199.8943,67.7487,-52.4471,1,0
0000990244,3,-0.4390,-0.4567,0.6850,-0.3600,-1787,-151,266,-2235,-183,159,-120,567,-155,194.5425,68.4530,-57.4580,1,0
0000990265,3,-0.4466,-0.4672,0.6768,-0.3524,-1794,-156,190,-2319,-83,239,-208,610,-115,189.6054,69.0369,-62.6195,1,0
0000990286,3,-0.4551,-0.4772,0.6677,-0.3456,-1798,-147,110,-2295,215,63,-151,624,-43,184.4716,69.6344,-67.9923,1,0
0000990307,3,-0.4661,-0.4833,0.6598,-0.3374,-1798,-147,110,-2327,591,-287,97,645,-3,179.0877,70.2562,-73.0875,1,0
0000990328,3,-0.4814,-0.4832,0.6553,-0.3245,-1796,-131,30,-2275,739,-383,565,750,45,173.0041,70.8350,-77.7856,1,0
0000990349,3,-0.5072,-0.4755,0.6522,-0.3022,-1790,-112,-64,-2347,687,-479,774,840,108,163.7887,71.6099,-83.9134,1,0
0000990370,3,-0.5312,-0.4651,0.6492,-0.2829,-1771,-82,-168,-2423,207,-291,872,886,242,155.3015,72.3441,-89.4193,1,0
0000990391,3,-0.5579,-0.4513,0.6442,-0.2648,-1741,-40,-283,-2635,-191,-111,888,940,415,145.6285,73.2890,-95.9390,1,0
0000990412,3,-0.5867,-0.4353,0.6358,-0.2490,-1692,9,-402,-2823,-615,-123,843,994,567,134.0159,74.3345,-104.4596,1,0
0000990433,3,-0.6156,-0.4177,0.6255,-0.2352,-1692,9,-402,-2971,-583,-343,850,956,664,120.8374,75.1473,-114.6629,1,0
0000990454,3,-0.6518,-0.3912,0.6129,-0.2157,-1636,58,-518,-2879,-451,-495,1073,977,654,103.1387,75.3979,-128.1309,1,0
0000990475,3,-0.6802,-0.3664,0.6044,-0.1942,-1570,80,-631,-2631,-595,-75,1272,975,553,89.8113,74.7082,-137.3423,1,0
0000990496,3,-0.7072,-0.3406,0.5964,-0.1678,-1502,67,-741,-2311,-839,323,1359,986,449,78.6535,73.3119,-143.9595,1,0
0000990517,3,-0.7309,-0.3166,0.5881,-0.1403,-1433,30,-839,-2243,-839,327,1257,957,340,70.0895,71.5327,-148.1193,1,0
0000990538,3,-0.7520,-0.2962,0.5779,-0.1131,-1365,-20,-929,-2039,-983,151,1142,952,209,63.5729,69.4195,-150.6419,1,0
0000990559,3,-0.7697,-0.2795,0.5675,-0.0864,-1365,-20,-929,-2083,-1039,-219,1005,882,96,58.9787,67.1931,-151.6279,1,0
0000990580,3,-0.7888,-0.2609,0.5538,-0.0550,-1297,-80,-1003,-2347,-975,-259,938,853,92,54.4664,64.4674,-152.0124,1,0
0000990601,3,-0.8023,-0.2464,0.5428,-0.0302,-1231,-142,-1063,-2287,-819,-183,980,779,50,51.4156,62.3604,-151.8188,1,0
0000990622,3,-0.8125,-0.2319,0.5349,-0.0035,-1175,-221,-1105,-1895,-1051,-47,1045,628,-33,49.3597,60.5546,-150.4550,1,0
0000990643,3,-0.8199,-0.2191,0.5285,0.0227,-1129,-301,-1128,-1623,-1119,131,954,551,-87,47.9727,58.9397,-148.5967,1,0
0000990664,3,-0.8259,-0.2087,0.5218,0.0461,-1084,-369,-1150,-1399,-1003,187,731,512,-100,46.8390,57.4176,-146.9140,1,0
0000990685,3,-0.8313,-0.1991,0.5142,0.0697,-1084,-369,-1150,-1079,-699,115,594,367,-109,45.7780,55.8161,-145.2084,1,0
0000990706,3,-0.8330,-0.1936,0.5113,0.0845,-1052,-423,-1158,-1007,-675,91,509,178,-105,45.4762,55.0033,-143.8043,1,0
0000990727,3,-0.8323,-0.1886,0.5121,0.0968,-1039,-468,-1148,-1015,-763,131,432,26,-61,45.6203,54.6856,-142.1933,1,0
0000990748,3,-0.8302,-0.1844,0.5156,0.1046,-1044,-495,-1128,-1171,-879,87,308,-146,4,45.9684,54.8420,-140.8157,1,0
0000990769,3,-0.8257,-0.1808,0.5232,0.1083,-1071,-503,-1096,-1415,-1015,199,179,-352,64,46.7827,55.5820,-139.3763,1,0
0000990790,3,-0.8160,-0.1784,0.5397,0.1055,-1124,-492,-1042,-1643,-1231,331,-19,-685,129,48.8591,57.4633,-137.2990,1,0
0000990811,3,-0.8053,-0.1803,0.5566,0.0954,-1124,-492,-1042,-1895,-1451,483,-305,-866,143,51.5240,59.5554,-135.6082,1,0
0000990832,3,-0.7926,-0.1869,0.5750,0.0790,-1193,-455,-981,-2063,-1427,335,-594,-976,117,55.2116,61.8742,-133.8164,1,0
0000990853,3,-0.7779,-0.1988,0.5933,0.0571,-1265,-396,-908,-2135,-1323,283,-806,-1090,37,60.0946,64.2165,-131.7110,1,0
0000990874,3,-0.7604,-0.2150,0.6120,0.0335,-1338,-342,-827,-2051,-1187,227,-928,-1142,-70,66.6805,66.3808,-128.3857,1,0
0000990895,3,-0.7413,-0.2342,0.6289,0.0093,-1401,-297,-737,-2019,-1107,163,-995,-1136,-150,74.5324,68.1403,-124.1068,1,0
0000990916,3,-0.7146,-0.2624,0.6480,-0.0228,-1461,-250,-644,-2295,-883,-3,-1222,-1162,-215,86.2883,69.7444,-117.3471,1,0
0000990937,3,-0.6919,-0.2878,0.6601,-0.0520,-1461,-250,-644,-2567,-503,-47,-1316,-1118,-180,96.4248,70.6320,-111.7883,1,0
0000990958,3,-0.6701,-0.3106,0.6694,-0.0809,-1508,-206,-549,-2419,-779,-235,-1209,-977,-96,106.1181,71.3082,-106.4660,1,0
0000990979,3,-0.6516,-0.3287,0.6752,-0.1071,-1546,-163,-473,-2311,-827,-419,-1028,-776,27,114.2491,71.8674,-102.1251,1,0
0000991000,3,-0.6360,-0.3443,0.6780,-0.1318,-1570,-122,-411,-2219,-623,-675,-1028,-570,44,121.0861,72.3815,-98.7448,1,0
0000991021,3,-0.6206,-0.3659,0.6747,-0.1607,-1584,-83,-378,-2227,-375,-843,-1142,-363,15,126.8876,72.7383,-97.3554,1,0
0000991042,3,-0.6110,-0.3843,0.6677,-0.1822,-1584,-83,-378,-2051,-179,-775,-1065,-227,38,129.5655,72.9359,-98.2243,1,0
0000991063,3,-0.6038,-0.3983,0.6606,-0.2008,-1588,-47,-356,-2011,-87,-707,-841,-170,117,131.3894,73.2874,-99.3169,1,0
0000991084,3,-0.5995,-0.4072,0.6540,-0.2168,-1593,-8,-340,-2011,-71,-703,-629,-114,208,132.4513,73.8983,-100.4765,1,0
0000991105,3,-0.5980,-0.4112,0.6482,-0.2308,-1593,37,-328,-1879,-51,-627,-417,-75,341,132.8109,74.7813,-101.7003,1,0
0000991126,3,-0.5992,-0.4107,0.6412,-0.2472,-1591,90,-321,-1755,-199,-635,-308,-39,424,132.3577,76.2825,-103.5238,1,0
0000991147,3,-0.6028,-0.4078,0.6349,-0.2593,-1582,147,-322,-1815,-311,-599,-236,44,487,130.5220,77.6594,-106.1251,1,0
0000991168,3,-0.6087,-0.4033,0.6277,-0.2697,-1582,147,-322,-1875,-407,-431,-146,128,523,126.6721,79.0497,-110.4504,1,0
0000991189,3,-0.6166,-0.3977,0.6195,-0.2790,-1569,208,-336,-1819,-499,-415,-120,202,567,120.0772,80.3688,-117.3112,1,0
0000991210,3,-0.6257,-0.3921,0.6094,-0.2888,-1547,277,-356,-1751,-467,-415,-192,258,625,109.9298,81.5258,-127.8057,1,0
0000991231,3,-0.6370,-0.3857,0.5948,-0.3028,-1523,351,-378,-1779,-435,-371,-244,266,644,92.2081,82.4538,-146.1911,1,0
0000991252,3,-0.6451,-0.3817,0.5821,-0.3151,-1494,426,-394,-2307,-287,-427,-337,256,626,76.1318,82.5677,-163.0457,1,0
0000991273,3,-0.6522,-0.3791,0.5685,-0.3282,-1461,502,-412,-2679,291,-543,-362,281,605,61.3854,82.0515,-178.7954,1,0
0000991294,3,-0.6611,-0.3745,0.5549,-0.3389,-1461,502,-412,-2687,651,-735,-153,329,645,48.9418,80.9092,168.1461,1,0
0000991315,3,-0.6732,-0.3664,0.5426,-0.3437,-1423,571,-441,-2751,1327,-971,211,462,544,40.1570,79.2470,159.5791,1,0
0000991336,3,-0.6880,-0.3581,0.5317,-0.3401,-1381,607,-501,-3067,1219,-1051,394,566,401,36.3744,77.2221,156.7996,1,0
0000991357,3,-0.7096,-0.3476,0.5191,-0.3256,-1339,613,-585,-3047,871,-995,665,697,324,35.3087,74.4126,157.8697,1,0
0000991378,3,-0.7294,-0.3367,0.5098,-0.3076,-1289,599,-684,-2999,559,-859,891,746,292,35.0297,71.9751,160.0843,1,0
0000991399,3,-0.7494,-0.3250,0.5017,-0.2849,-1239,557,-789,-2815,115,-779,1010,757,191,35.1790,69.5618,163.2049,1,0
0000991420,3,-0.7680,-0.3142,0.4939,-0.2597,-1239,557,-789,-2599,-59,-731,1002,751,109,35.7012,67.2094,166.7884,1,0
0000991462,3,-0.7994,-0.2989,0.4789,-0.2055,-1149,437,-964,-1959,271,-779,762,568,-138,37.7867,62.6886,174.7185,1,0
0000991483,3,-0.8077,-0.2968,0.4750,-0.1839,-1118,370,-1020,-1819,299,-827,670,447,-229,39.2795,61.2277,178.1900,1,0
0000991504,3,-0.8134,-0.2964,0.4728,-0.1643,-1100,302,-1062,-1683,279,-883,595,349,-276,40.9054,60.0550,-178.5138,1,0
0000991525,3,-0.8170,-0.2967,0.4723,-0.1461,-1087,234,-1086,-1631,383,-1011,562,244,-292,42.5594,59.1425,-175.3524,1,0
0000991546,3,-0.8195,-0.2961,0.4737,-0.1280,-1087,234,-1086,-1631,375,-1043,639,178,-279,44.0974,58.4517,-172.2149,1,0
0000991567,3,-0.8226,-0.2919,0.4772,-0.1018,-1080,159,-1111,-1575,199,-939,831,186,-238,45.6762,57.6201,-168.0277,1,0
0000991588,3,-0.8258,-0.2858,0.4799,-0.0778,-1066,71,-1130,-1515,-191,-763,912,229,-202,46.5735,56.8275,-164.5458,1,0
0000991609,3,-0.8290,-0.2789,0.4818,-0.0536,-1052,-16,-1152,-1739,-467,-651,897,240,-199,47.2154,55.9579,-161.2502,1,0
0000991630,3,-0.8313,-0.2727,0.4833,-0.0305,-1034,-97,-1162,-1939,-1075,-495,804,205,-195,47.8247,55.1059,-158.1568,1,0
0000991651,3,-0.8327,-0.2672,0.4849,-0.0114,-1021,-154,-1169,-1923,-1447,-495,589,166,-117,48.2718,54.4498,-155.6124,1,0
0000991672,3,-0.8351,-0.2619,0.4838,0.0064,-1021,-154,-1169,-1659,-1519,-411,413,258,-100,48.3382,53.5716,-153.5911,1,0
0000991693,3,-0.8372,-0.2602,0.4807,0.0169,-999,-198,-1182,-1559,-1435,-75,289,204,-124,48.3088,52.7591,-152.6071,1,0
0000991714,3,-0.8377,-0.2601,0.4796,0.0243,-984,-222,-1190,-1255,-1359,83,121,81,-108,48.6005,52.2663,-151.6921,1,0
0000991735,3,-0.8371,-0.2621,0.4795,0.0241,-983,-222,-1189,-1183,-1255,7,-137,-70,-38,48.9173,52.2055,-151.5723,1,0
0000991756,3,-0.8349,-0.2658,0.4817,0.0175,-1002,-190,-1178,-1171,-1067,19,-424,-270,1,49.4123,52.6617,-151.9431,1,0
0000991777,3,-0.8300,-0.2725,0.4866,0.0042,-1045,-136,-1144,-1275,-871,-39,-657,-532,-31,50.3760,53.6586,-152.6599,1,0
0000991798,3,-0.8183,-0.2863,0.4980,-0.0216,-1045,-136,-1144,-1455,-711,-55,-831,-791,-93,52.7335,55.8313,-153.5981,1,0
0000991819,3,-0.8040,-0.3008,0.5109,-0.0460,-1111,-74,-1086,-1727,-479,11,-958,-955,-181,55.7784,58.1228,-153.7731,1,0
0000991840,3,-0.7860,-0.3188,0.5247,-0.0729,-1190,-11,-1007,-2191,-139,-51,-1068,-1067,-303,59.8981,60.6021,-153.3776,1,0
0000991861,3,-0.7642,-0.3401,0.5390,-0.0996,-1269,34,-912,-2415,-27,-127,-1125,-1113,-440,65.5216,63.0574,-151.7682,1,0
0000991882,3,-0.7393,-0.3627,0.5531,-0.1259,-1347,62,-804,-2819,195,-211,-1104,-1197,-515,72.5343,65.4041,-148.8857,1,0
0000991903,3,-0.7047,-0.3895,0.5718,-0.1572,-1347,62,-804,-2919,123,-259,-1028,-1251,-517,83.4270,68.1814,-142.9453,1,0
0000991924,3,-0.6761,-0.4074,0.5864,-0.1816,-1422,75,-685,-3059,19,-255,-952,-1230,-400,93.3425,70.2168,-136.6739,1,0
0000991945,3,-0.6492,-0.4213,0.5989,-0.2057,-1485,87,-563,-2983,-83,-199,-890,-1148,-270,103.5480,71.9904,-129.8011,1,0
0000991966,3,-0.6239,-0.4326,0.6088,-0.2302,-1534,103,-446,-2771,23,-231,-891,-1085,-167,113.9824,73.4955,-122.5434,1,0
0000991987,3,-0.5986,-0.4429,0.6165,-0.2558,-1575,121,-328,-2603,95,-271,-971,-1083,-128,125.3593,74.7231,-114.4354,1,0
0000992008,3,-0.5653,-0.4567,0.6230,-0.2894,-1606,139,-205,-2347,179,-219,-1086,-1065,-100,141.1822,75.6257,-103.0629,1,0
0000992029,3,-0.5382,-0.4681,0.6245,-0.3182,-1606,139,-205,-2387,291,-199,-1163,-999,-26,154.0040,75.9548,-94.1351,1,0
0000992050,3,-0.5132,-0.4786,0.6222,-0.3470,-1628,158,-87,-2475,327,-275,-1157,-872,98,165.6701,76.1141,-86.3770,1,0
0000992071,3,-0.4911,-0.4870,0.6167,-0.3760,-1635,189,19,-2391,455,-499,-1123,-796,219,176.4244,76.3829,-79.4173,1,0
0000992092,3,-0.4709,-0.4925,0.6101,-0.4044,-1639,221,123,-2483,483,-611,-993,-786,301,187.3701,76.6175,-71.9920,1,0
0000992113,3,-0.4546,-0.4938,0.6036,-0.4303,-1628,265,207,-2571,391,-559,-707,-593,452,198.0585,76.8476,-64.2066,1,0
0000992134,3,-0.4450,-0.4909,0.5929,-0.4577,-1613,325,257,-2711,199,-623,-501,-355,593,209.7564,77.6927,-55.0921,1,0
0000992155,3,-0.4454,-0.4865,0.5824,-0.4751,-1613,325,257,-2871,259,-847,-299,-123,677,218.3434,78.8493,-47.8479,1,0
0000992176,3,-0.4534,-0.4808,0.5712,-0.4868,-1592,395,268,-2887,379,-903,-23,140,688,226.2678,80.4304,-40.4612,1,0
0000992197,3,-0.4679,-0.4742,0.5617,-0.4906,-1574,464,236,-2779,631,-743,385,387,530,233.0497,82.2805,-33.2286,1,0
0000992218,3,-0.4862,-0.4666,0.5566,-0.4858,-1557,509,172,-2819,471,-571,613,454,322,237.7026,84.0888,-27.1109,1,0
0000992239,3,-0.5094,-0.4585,0.5550,-0.4715,-1549,526,91,-2835,339,-487,709,535,131,237.0718,86.1594,-25.2178,1,0
0000992260,3,-0.5284,-0.4542,0.5556,-0.4537,-1545,512,-7,-2723,279,-295,813,650,-36,218.9444,87.7890,-40.9456,1,0
0000992281,3,-0.5472,-0.4516,0.5576,-0.4309,-1545,512,-7,-2483,523,-303,884,723,-194,155.2289,88.1266,-102.0082,1,0
0000992302,3,-0.5656,-0.4504,0.5603,-0.4041,-1545,475,-117,-2279,439,-295,932,779,-326,120.7106,86.2279,-133.6846,1,0
0000992323,3,-0.5825,-0.4513,0.5633,-0.3738,-1543,412,-231,-2215,391,-271,907,848,-500,111.8996,83.5329,-139.6163,1,0
0000992344,3,-0.6008,-0.4558,0.5659,-0.3333,-1536,327,-345,-2187,335,-199,846,879,-596,108.1644,79.6638,-139.9846,1,0
0000992365,3,-0.6137,-0.4613,0.5665,-0.2993,-1518,232,-456,-2167,475,-331,814,922,-641,106.5559,76.3004,-139.0430,1,0
0000992386,3,-0.6266,-0.4656,0.5660,-0.2650,-1491,135,-559,-1987,435,-343,874,921,-581,104.7030,72.9548,-138.2824,1,0
0000992407,3,-0.6397,-0.4654,0.5665,-0.2308,-1491,135,-559,-1891,451,-315,1011,817,-458,102.6799,69.9852,-137.3021,1,0
0000992428,3,-0.6524,-0.4588,0.5702,-0.1966,-1460,40,-642,-1883,407,-227,1275,618,-291,100.7925,67.5886,-135.5968,1,0
0000992449,3,-0.6678,-0.4396,0.5807,-0.1536,-1432,-53,-694,-1747,95,-11,1545,464,-130,98.4864,65.5961,-132.3411,1,0
0000992470,3,-0.6796,-0.4150,0.5931,-0.1185,-1412,-146,-719,-1423,-235,83,1753,338,33,96.4862,64.7716,-129.0033,1,0
0000992491,3,-0.6892,-0.3852,0.6078,-0.0847,-1404,-233,-713,-1307,-515,19,1782,170,105,94.7723,64.5674,-125.0652,1,0
0000992512,3,-0.6938,-0.3561,0.6235,-0.0551,-1409,-306,-681,-1619,-1015,-7,1570,-28,91,94.2077,64.7456,-120.4645,1,0
0000992533,3,-0.6945,-0.3302,0.6385,-0.0324,-1409,-306,-681,-2139,-1531,67,1236,-200,180,94.5655,65.2560,-115.8652,1,0
0000992554,3,-0.6929,-0.3059,0.6527,-0.0159,-1423,-350,-633,-2335,-1599,103,1103,-231,218,95.5700,66.1037,-111.3291,1,0
0000992575,3,-0.6910,-0.2780,0.6673,0.0037,-1438,-382,-591,-2103,-1527,91,1066,-100,106,96.6125,66.9419,-106.2184,1,0
0000992596,3,-0.6908,-0.2606,0.6741,0.0224,-1437,-426,-569,-1691,-1487,79,908,95,-89,96.5240,66.8750,-103.2732,1,0
0000992617,3,-0.6921,-0.2503,0.6758,0.0412,-1424,-480,-573,-1527,-1383,139,663,236,-234,95.4920,66.1771,-101.8887,1,0
0000992638,3,-0.6947,-0.2446,0.6739,0.0580,-1402,-523,-585,-1591,-1263,155,493,299,-250,93.8201,65.2291,-101.7056,1,0
0000992659,3,-0.6974,-0.2396,0.6714,0.0731,-1402,-523,-585,-1667,-1131,171,481,261,-183,92.1840,64.3632,-101.6869,1,0
0000992680,3,-0.7002,-0.2311,0.6695,0.0900,-1386,-562,-592,-1739,-1147,371,508,228,-104,90.4167,63.6340,-101.3491,1,0
0000992701,3,-0.7028,-0.2225,0.6679,0.1019,-1372,-588,-595,-1711,-1191,447,501,255,-25,88.8809,63.3223,-101.1682,1,0
0000992722,3,-0.7062,-0.2127,0.6659,0.1119,-1363,-608,-603,-1575,-1331,659,424,261,60,87.1209,63.2499,-101.2781,1,0
0000992743,3,-0.7094,-0.2047,0.6642,0.1170,-1360,-603,-607,-1563,-1239,595,217,152,127,85.6495,63.4406,-101.6636,1,0
0000992764,3,-0.7108,-0.2000,0.6643,0.1161,-1360,-603,-607,-1611,-1171,551,-57,-36,196,85.1184,63.8879,-101.8650,1,0
0000992785,3,-0.7105,-0.1983,0.6667,0.1070,-1370,-582,-606,-1651,-1167,627,-226,-171,245,85.6285,64.8024,-101.9568,1,0
0000992806,3,-0.7082,-0.1997,0.6705,0.0950,-1387,-546,-596,-1619,-1199,679,-399,-275,278,87.0358,65.7477,-101.6446,1,0
0000992827,3,-0.7047,-0.2044,0.6749,0.0781,-1412,-495,-583,-1639,-1211,663,-626,-374,303,89.2125,66.8299,-101.2504,1,0
0000992848,3,-0.6998,-0.2135,0.6795,0.0554,-1440,-428,-561,-1723,-1155,575,-867,-488,309,92.2215,68.0185,-100.8530,1,0
0000992869,3,-0.6923,-0.2265,0.6845,0.0285,-1474,-355,-527,-1811,-1103,559,-1101,-611,285,96.4380,69.2127,-99.9337,1,0
0000992890,3,-0.6798,-0.2473,0.6903,-0.0097,-1474,-355,-527,-1855,-1047,559,-1235,-690,257,103.1510,70.6352,-98.0993,1,0
0000992911,3,-0.6668,-0.2672,0.6944,-0.0426,-1503,-280,-482,-1883,-1019,527,-1385,-750,211,109.8480,71.5873,-95.7954,1,0
0000992932,3,-0.6509,-0.2907,0.6970,-0.0775,-1535,-207,-424,-2111,-967,471,-1549,-790,133,117.4628,72.2564,-93.0899,1,0
0000992953,3,-0.6324,-0.3179,0.6973,-0.1135,-1561,-146,-356,-2195,-903,403,-1685,-810,42,125.5939,72.5632,-90.3576,1,0
0000992974,3,-0.6109,-0.3470,0.6958,-0.1492,-1584,-99,-282,-2063,-855,247,-1717,-846,-38,134.0233,72.4879,-87.5606,1,0
0000992995,3,-0.5866,-0.3760,0.6933,-0.1841,-1604,-70,-194,-2095,-675,187,-1742,-886,-85,142.7056,72.1398,-84.5623,1,0
0000993016,3,-0.5533,-0.4123,0.6876,-0.2260,-1604,-70,-194,-2087,-567,147,-1723,-829,-128,152.9799,71.3068,-81.4603,1,0
0000993037,3,-0.5262,-0.4386,0.6816,-0.2570,-1621,-53,-110,-2103,-559,-47,-1590,-850,-108,160.4780,70.5352,-79.3960,1,0
0000993058,3,-0.4966,-0.4623,0.6760,-0.2875,-1632,-45,-14,-2251,-223,-243,-1608,-964,-148,168.3446,69.5904,-76.8518,1,0
0000993079,3,-0.4631,-0.4866,0.6694,-0.3173,-1639,-62,87,-2327,-199,-271,-1646,-975,-248,175.9948,68.2416,-74.7411,1,0
0000993100,3,-0.4293,-0.5094,0.6619,-0.3438,-1639,-90,179,-2367,-351,-407,-1463,-874,-234,182.5719,66.7036,-73.4755,1,0
0000993121,3,-0.3914,-0.5323,0.6515,-0.3729,-1634,-116,256,-2371,-227,-471,-1292,-783,-150,189.4639,65.0887,-72.4560,1,0
0000993142,3,-0.3664,-0.5463,0.6425,-0.3931,-1634,-116,256,-2215,-99,-443,-1082,-625,-53,193.9397,64.1978,-71.9755,1,0
0000993163,3,-0.3471,-0.5561,0.6338,-0.4106,-1630,-132,313,-2335,-35,-631,-851,-532,64,197.6805,63.7249,-71.4861,1,0
0000993184,3,-0.3326,-0.5622,0.6258,-0.4261,-1623,-132,359,-2503,147,-651,-664,-423,117,200.9810,63.5715,-70.7777,1,0
0000993205,3,-0.3230,-0.5665,0.6189,-0.4378,-1620,-125,387,-2595,219,-687,-408,-210,146,203.3272,63.6178,-70.3426,1,0
0000993226,3,-0.3194,-0.5683,0.6125,-0.4470,-1619,-105,396,-2695,231,-807,-132,-75,206,204.9623,64.0750,-69.9406,1,0
0000993247,3,-0.3244,-0.5649,0.6104,-0.4505,-1619,-68,387,-2759,239,-687,206,59,300,205.5686,64.8358,-69.1685,1,0
0000993268,3,-0.3375,-0.5576,0.6104,-0.4502,-1619,-68,387,-2659,227,-563,497,260,389,205.2734,66.0650,-68.2389,1,0
0000993289,3,-0.3576,-0.5476,0.6115,-0.4454,-1623,-15,352,-2667,263,-395,745,435,424,203.7768,67.6791,-67.6219,1,0
0000993310,3,-0.3827,-0.5351,0.6140,-0.4360,-1628,46,292,-2615,219,-243,1025,599,428,201.0632,69.5044,-67.4465,1,0
0000993331,3,-0.4195,-0.5151,0.6194,-0.4184,-1628,103,214,-2523,159,-143,1245,665,412,196.1358,71.9341,-67.7484,1,0
0000993352,3,-0.4515,-0.4954,0.6254,-0.3996,-1627,148,122,-2331,31,7,1438,720,372,190.8807,73.8650,-68.5786,1,0
0000993373,3,-0.4842,-0.4735,0.6320,-0.3767,-1627,148,122,-2199,-91,179,1546,768,323,184.0796,75.6502,-70.5081,1,0
0000993394,3,-0.5167,-0.4503,0.6380,-0.3511,-1616,179,18,-2231,-39,267,1588,793,280,175.4755,77.2750,-74.0541,1,0
0000993415,3,-0.5473,-0.4269,0.6431,-0.3234,-1605,190,-88,-2363,39,375,1575,781,194,165.0114,78.5543,-79.4256,1,0
0000993436,3,-0.5754,-0.4036,0.6476,-0.2944,-1586,183,-190,-2387,39,499,1555,752,140,153.1739,79.3754,-86.2583,1,0
0000993457,3,-0.6066,-0.3741,0.6527,-0.2570,-1569,158,-284,-2407,-83,615,1562,679,112,138.1181,79.7880,-95.1145,1,0
0000993478,3,-0.6288,-0.3487,0.6565,-0.2279,-1548,132,-358,-2443,-375,739,1526,584,160,127.0591,79.9431,-101.2649,1,0
0000993499,3,-0.6477,-0.3233,0.6597,-0.2018,-1548,132,-358,-2511,-555,687,1379,488,178,117.5283,80.0904,-106.2395,1,0
0000993520,3,-0.6629,-0.3010,0.6617,-0.1792,-1531,106,-419,-2595,-531,447,1155,393,122,109.3972,80.1118,-110.4573,1,0
0000993541,3,-0.6740,-0.2834,0.6635,-0.1586,-1515,72,-460,-2579,-295,-103,971,363,-42,103.5012,79.8429,-113.0703,1,0
0000993562,3,-0.6867,-0.2660,0.6638,-0.1305,-1503,25,-507,-2359,67,-543,1009,431,-162,96.7543,78.8462,-115.9653,1,0
0000993583,3,-0.6962,-0.2522,0.6640,-0.1037,-1485,-44,-547,-2131,219,-539,1118,423,-242,92.4189,77.6643,-116.9024,1,0
0000993604,3,-0.7037,-0.2377,0.6653,-0.0750,-1473,-125,-570,-2047,227,-411,1173,306,-301,89.5757,76.4174,-116.1538,1,0
0000993625,3,-0.7075,-0.2221,0.6694,-0.0449,-1473,-125,-570,-1935,-151,-255,1274,158,-304,88.8373,75.2714,-113.1101,1,0
0000993646,3,-0.7087,-0.2032,0.6754,-0.0150,-1466,-214,-566,-1895,-363,-83,1291,39,-194,88.9283,74.4714,-108.9860,1,0
0000993667,3,-0.7086,-0.1803,0.6820,0.0171,-1462,-281,-550,-2035,-499,123,1062,61,-157,89.0173,73.8052,-104.3748,1,0
0000993688,3,-0.7088,-0.1671,0.6843,0.0379,-1457,-338,-540,-2059,-647,95,823,112,-190,88.4610,73.2136,-102.1317,1,0
0000993709,3,-0.7090,-0.1573,0.6851,0.0564,-1446,-389,-533,-2015,-687,43,714,109,-226,87.7628,72.5067,-100.5201,1,0
0000993730,3,-0.7085,-0.1493,0.6857,0.0743,-1437,-445,-523,-1947,-763,195,663,85,-262,87.2660,71.7110,-98.8952,1,0
0000993751,3,-0.7078,-0.1438,0.6856,0.0914,-1437,-445,-523,-1939,-899,435,551,113,-321,86.7762,70.7727,-97.5302,1,0
0000993772,3,-0.7076,-0.1417,0.6839,0.1077,-1423,-498,-521,-1971,-987,495,408,147,-418,85.9700,69.5948,-96.8271,1,0
0000993793,3,-0.7068,-0.1437,0.6808,0.1272,-1404,-555,-521,-1959,-1171,475,304,109,-493,85.2000,67.8072,-96.1647,1,0
0000993814,3,-0.7046,-0.1491,0.6791,0.1420,-1381,-615,-516,-1855,-1043,523,226,8,-561,85.2878,66.1519,-95.2955,1,0
0000993835,3,-0.6999,-0.1563,0.6794,0.1557,-1365,-673,-495,-1827,-967,559,185,-152,-554,86.2677,64.4536,-93.7869,1,0
0000993856,3,-0.6925,-0.1645,0.6823,0.1669,-1354,-721,-463,-1839,-1043,519,82,-294,-495,88.1291,62.8863,-91.6701,1,0
0000993877,3,-0.6840,-0.1739,0.6865,0.1751,-1354,-721,-463,-1771,-1019,543,-1,-424,-460,90.3613,61.4263,-89.5412,1,0
0000993898,3,-0.6695,-0.1877,0.6953,0.1819,-1349,-762,-421,-1771,-991,603,-55,-591,-445,94.2286,59.6241,-86.2632,1,0
0000993919,3,-0.6549,-0.2000,0.7048,0.1854,-1348,-798,-365,-1975,-1071,631,-88,-706,-435,97.9823,58.0959,-83.2462,1,0
0000993940,3,-0.6393,-0.2131,0.7146,0.1875,-1349,-832,-305,-2071,-1135,619,-128,-736,-410,101.7321,56.4979,-80.4353,1,0
0000993961,3,-0.6236,-0.2259,0.7244,0.1878,-1348,-859,-248,-1995,-1127,535,-176,-738,-347,105.3163,54.9509,-77.9217,1,0
0000993982,3,-0.6086,-0.2395,0.7335,0.1851,-1349,-879,-204,-1871,-1059,451,-349,-727,-276,108.7024,53.5264,-75.9336,1,0
0000994003,3,-0.5915,-0.2597,0.7427,0.1766,-1349,-879,-204,-1823,-879,443,-532,-705,-227,112.6756,51.8889,-74.4496,1,0
0000994024,3,-0.5792,-0.2781,0.7481,0.1657,-1349,-887,-174,-1903,-671,371,-676,-681,-165,115.6806,50.7625,-74.0010,1,0
0000994045,3,-0.5677,-0.2978,0.7524,0.1514,-1356,-886,-157,-1931,-595,347,-782,-697,-84,118.6784,49.8317,-73.9796,1,0
0000994066,3,-0.5560,-0.3172,0.7567,0.1331,-1367,-871,-138,-1775,-491,359,-849,-758,38,122.0010,49.1922,-73.9652,1,0
0000994087,3,-0.5441,-0.3362,0.7607,0.1108,-1390,-844,-120,-1763,-467,351,-944,-792,187,125.6606,48.8745,-73.9415,1,0
0000994108,3,-0.5299,-0.3590,0.7644,0.0781,-1415,-802,-102,-1743,-419,287,-1002,-778,289,130.4534,48.9315,-74.0360,1,0
0000994129,3,-0.5192,-0.3759,0.7660,0.0492,-1415,-802,-102,-1907,-371,171,-1013,-783,382,134.4017,49.3165,-74.1257,1,0
0000994150,3,-0.5080,-0.3916,0.7670,0.0183,-1448,-751,-80,-2247,-555,259,-1023,-813,453,138.6111,49.8989,-74.0314,1,0
0000994171,3,-0.4975,-0.4063,0.7663,-0.0150,-1481,-689,-53,-2363,-747,251,-1095,-762,567,142.9317,50.7702,-73.9492,1,0
0000994192,3,-0.4897,-0.4197,0.7625,-0.0520,-1521,-603,-34,-2275,-903,75,-1148,-683,786,147.2180,52.2210,-74.0747,1,0
0000994213,3,-0.4840,-0.4291,0.7568,-0.0944,-1564,-484,6,-2179,-891,-155,-1140,-799,1105,152.0485,54.4495,-73.6948,1,0
0000994234,3,-0.4741,-0.4355,0.7490,-0.1566,-1564,-484,6,-2247,-815,-263,-1220,-994,1295,160.4224,57.8424,-71.2410,1,0
0000994255,3,-0.4634,-0.4391,0.7401,-0.2116,-1601,-342,81,-2359,-635,-363,-1312,-997,1379,168.9753,60.6526,-67.8196,1,0
0000994276,3,-0.4537,-0.4421,0.7271,-0.2645,-1622,-198,161,-2571,-751,-1043,-1268,-822,1315,177.8730,63.3391,-63.9184,1,0
0000994297,3,-0.4468,-0.4456,0.7115,-0.3092,-1626,-72,218,-2683,-1167,-963,-1088,-475,1125,185.8373,65.6950,-60.3450,1,0
0000994318,3,-0.4476,-0.4490,0.6950,-0.3391,-1623,13,223,-2547,-1483,-127,-719,70,724,190.6423,67.9322,-58.5561,1,0
0000994339,3,-0.4492,-0.4610,0.6751,-0.3606,-1621,46,206,-2323,-1035,-155,-858,174,314,192.1924,69.8702,-60.1224,1,0
0000994360,3,-0.4455,-0.4771,0.6606,-0.3708,-1621,46,206,-2231,-375,-527,-859,211,34,191.1590,70.4693,-63.7886,1,0
0000994381,3,-0.4434,-0.4926,0.6475,-0.3762,-1622,43,183,-2447,719,-1135,-636,343,45,188.8226,70.8764,-68.2426,1,0
0000994402,3,-0.4495,-0.5020,0.6352,-0.3776,-1623,58,136,-2459,1151,-1475,-208,512,239,185.2243,71.8105,-72.8499,1,0
0000994423,3,-0.4651,-0.5009,0.6274,-0.3731,-1621,91,72,-2539,907,-1435,419,600,349,180.4470,73.2020,-76.8764,1,0
0000994444,3,-0.4960,-0.4856,0.6260,-0.3554,-1612,127,-15,-2647,139,-1035,1130,765,357,171.8081,75.0476,-81.9068,1,0
0000994465,3,-0.5262,-0.4669,0.6285,-0.3317,-1599,139,-125,-2555,-423,-555,1408,880,267,161.7752,76.2279,-87.5602,1,0
0000994486,3,-0.5560,-0.4477,0.6314,-0.3028,-1599,139,-125,-2443,-535,-327,1458,917,135,149.8004,76.7395,-94.7889,1,0
0000994507,3,-0.5834,-0.4288,0.6342,-0.2712,-1580,121,-237,-2255,-471,-195,1469,899,39,137.7589,76.5535,-102.0359,1,0
0000994528,3,-0.6084,-0.4095,0.6369,-0.2377,-1558,81,-343,-2131,-427,-35,1512,849,-30,126.8803,75.8507,-108.0475,1,0
0000994549,3,-0.6364,-0.3838,0.6403,-0.1942,-1531,26,-434,-2039,-411,87,1543,802,-53,115.5526,74.5907,-113.1633,1,0
0000994570,3,-0.6565,-0.3616,0.6426,-0.1588,-1506,-36,-514,-1871,-643,323,1564,762,-37,107.9015,73.4670,-115.7607,1,0
0000994591,3,-0.6747,-0.3374,0.6446,-0.1240,-1476,-101,-576,-1875,-811,423,1571,695,10,101.2599,72.4689,-117.2962,1,0
0000994612,3,-0.6904,-0.3126,0.6460,-0.0910,-1476,-101,-576,-1943,-803,411,1489,620,24,95.4747,71.6083,-118.1297,1,0
0000994633,3,-0.7032,-0.2888,0.6469,-0.0604,-1451,-168,-624,-1803,-887,311,1360,526,28,90.6663,70.8541,-118.3323,1,0
0000994654,3,-0.7133,-0.2657,0.6477,-0.0321,-1427,-230,-655,-1775,-895,227,1298,459,32,86.6598,70.2374,-118.0274,1,0
0000994675,3,-0.7229,-0.2393,0.6482,0.0006,-1408,-291,-674,-1699,-859,99,1180,375,-16,82.5889,69.5356,-117.1677,1,0
0000994696,3,-0.7276,-0.2204,0.6492,0.0256,-1391,-355,-677,-1623,-667,-63,1119,285,-66,80.3755,68.9664,-115.7329,1,0
0000994717,3,-0.7299,-0.2029,0.6509,0.0497,-1391,-355,-677,-1639,-739,119,1089,192,-100,78.9601,68.4267,-113.6951,1,0
0000994738,3,-0.7296,-0.1858,0.6540,0.0731,-1381,-418,-667,-1611,-919,291,1059,72,-87,78.3784,68.0150,-110.9351,1,0
0000994759,3,-0.7265,-0.1698,0.6593,0.0933,-1379,-477,-635,-1779,-1027,507,861,-98,-41,78.8321,67.8676,-107.4877,1,0
0000994780,3,-0.7209,-0.1539,0.6664,0.1122,-1386,-516,-599,-1855,-1067,615,706,-148,-38,80.1529,67.8498,-103.2890,1,0
0000994801,3,-0.7149,-0.1440,0.6727,0.1247,-1394,-549,-556,-1859,-1151,687,591,-222,-56,81.8709,67.8267,-99.7211,1,0
0000994822,3,-0.7083,-0.1372,0.6793,0.1347,-1402,-578,-515,-1867,-1275,807,447,-272,-89,84.0178,67.7038,-96.1936,1,0
0000994843,3,-0.7013,-0.1339,0.6855,0.1427,-1402,-578,-515,-1851,-1295,831,293,-268,-138,86.3796,67.4060,-92.8995,1,0
0000994864,3,-0.6946,-0.1342,0.6909,0.1491,-1407,-600,-477,-1831,-1315,823,141,-282,-215,88.6300,66.8867,-90.1429,1,0
0000994885,3,-0.6861,-0.1394,0.6969,0.1556,-1408,-628,-444,-1719,-1327,827,49,-313,-284,91.4286,65.9015,-87.2233,1,0
0000994906,3,-0.6786,-0.1464,0.7017,0.1604,-1408,-657,-413,-1595,-1447,875,-39,-323,-323,93.7176,64.8755,-85.1220,1,0
0000994927,3,-0.6713,-0.1563,0.7058,0.1635,-1404,-684,-385,-1527,-1531,951,-171,-365,-363,95.8630,63.7064,-83.5388,1,0
0000994948,3,-0.6623,-0.1696,0.7111,0.1640,-1402,-708,-353,-1523,-1451,947,-311,-482,-358,98.5610,62.4095,-81.9068,1,0
0000994969,3,-0.6515,-0.1841,0.7180,0.1618,-1402,-708,-353,-1567,-1447,867,-376,-612,-279,101.8055,61.1547,-80.0614,1,0
0000994990,3,-0.6393,-0.1992,0.7260,0.1564,-1406,-721,-313,-1735,-1387,847,-469,-723,-227,105.4980,60.0042,-78.0897,1,0
0000995011,3,-0.6216,-0.2191,0.7377,0.1463,-1416,-730,-264,-2147,-1243,683,-452,-774,-188,110.7078,58.5446,-75.4243,1,0
0000995032,3,-0.6068,-0.2314,0.7477,0.1385,-1425,-732,-207,-2547,-1275,659,-327,-768,-103,114.7792,57.4854,-73.0655,1,0
0000995053,3,-0.5916,-0.2406,0.7586,0.1289,-1444,-724,-142,-2271,-1155,515,-298,-836,42,119.0514,56.6819,-70.4079,1,0
0000995074,3,-0.5754,-0.2491,0.7705,0.1152,-1460,-705,-78,-1527,-1091,531,-488,-900,164,123.8490,56.0208,-67.5133,1,0
0000995095,3,-0.5603,-0.2607,0.7802,0.0966,-1460,-705,-78,-1395,-703,555,-702,-810,215,128.5885,55.4782,-65.3705,1,0
0000995116,3,-0.5437,-0.2777,0.7889,0.0705,-1480,-679,-33,-1611,-559,551,-725,-772,223,133.9824,54.9507,-63.6897,1,0
0000995137,3,-0.5298,-0.2911,0.7951,0.0490,-1494,-648,13,-2171,-583,443,-753,-810,253,138.3080,54.4880,-62.4051,1,0
0000995158,3,-0.5163,-0.3056,0.7997,0.0239,-1513,-612,54,-2255,-655,295,-942,-771,362,142.7778,54.2109,-61.3878,1,0
0000995179,3,-0.5049,-0.3234,0.8003,-0.0069,-1532,-561,78,-2243,-627,283,-1198,-705,492,147.2184,54.3476,-61.1836,1,0
0000995200,3,-0.4947,-0.3418,0.7979,-0.0423,-1559,-490,105,-2287,-555,287,-1245,-683,689,151.9030,54.9142,-61.1962,1,0
0000995221,3,-0.4830,-0.3598,0.7932,-0.0900,-1559,-490,105,-2071,-431,203,-1151,-675,820,158.4124,56.2021,-60.4177,1,0
0000995242,3,-0.4743,-0.3703,0.7882,-0.1291,-1581,-405,140,-1887,-359,167,-1107,-647,891,164.0403,57.4881,-59.1227,1,0
0000995263,3,-0.4658,-0.3797,0.7813,-0.1686,-1602,-312,181,-1871,-155,171,-1123,-635,910,169.9550,58.8575,-57.5127,1,0
0000995284,3,-0.4562,-0.3886,0.7734,-0.2070,-1611,-228,231,-2091,-23,211,-1089,-632,844,176.0530,60.0447,-55.6369,1,0
0000995305,3,-0.4453,-0.3969,0.7652,-0.2422,-1614,-158,282,-2255,55,235,-993,-615,727,182.0142,60.8991,-53.6520,1,0
0000995326,3,-0.4314,-0.4048,0.7553,-0.2821,-1614,-158,282,-2383,-43,191,-873,-597,705,189.3129,61.6448,-50.8172,1,0
0000995347,3,-0.4228,-0.4075,0.7471,-0.3115,-1610,-93,339,-2467,-243,191,-687,-475,777,195.0941,62.3281,-48.0555,1,0
0000995368,3,-0.4201,-0.4056,0.7383,-0.3376,-1605,-16,380,-2663,-451,191,-441,-288,821,200.6172,63.4018,-44.7449,1,0
0000995389,3,-0.4220,-0.4014,0.7293,-0.3591,-1598,63,402,-2591,-147,43,-289,-145,773,205.6172,64.6533,-41.2742,1,0
0000995410,3,-0.4258,-0.3969,0.7209,-0.3761,-1591,135,407,-2407,151,-71,-155,-1,618,209.9565,65.8551,-38.0173,1,0
0000995431,3,-0.4315,-0.3927,0.7138,-0.3875,-1584,183,400,-2319,71,143,4,69,443,213.2081,66.9687,-35.3181,1,0
0000995452,3,-0.4384,-0.3871,0.7087,-0.3947,-1584,183,400,-2279,-11,423,72,50,297,215.8910,67.9513,-32.6607,1,0
0000995473,3,-0.4426,-0.3834,0.7061,-0.3981,-1580,216,394,-2243,-15,487,50,57,219,217.4112,68.4923,-31.0424,1,0
0000995494,3,-0.4473,-0.3805,0.7032,-0.4007,-1575,241,386,-2311,43,363,62,104,228,218.6946,69.0807,-29.6617,1,0
0000995515,3,-0.4539,-0.3770,0.7000,-0.4023,-1573,270,366,-2483,259,139,166,186,245,219.8969,69.8446,-28.1717,1,0
0000995536,3,-0.4642,-0.3716,0.6970,-0.4007,-1572,297,329,-2587,403,-91,394,329,208,220.7444,70.8964,-26.5146,1,0
0000995557,3,-0.4822,-0.3621,0.6948,-0.3919,-1572,319,268,-2707,311,-155,639,451,143,220.6454,72.5304,-24.6427,1,0
0000995578,3,-0.5015,-0.3516,0.6941,-0.3783,-1572,319,268,-2819,375,-151,871,602,75,219.2872,74.1997,-23.5222,1,0
0000995599,3,-0.5247,-0.3396,0.6933,-0.3587,-1575,333,178,-2687,371,-71,1061,753,-6,216.2929,76.2134,-23.3630,1,0
0000995620,3,-0.5499,-0.3271,0.6924,-0.3336,-1573,328,67,-2579,235,0,1189,864,-115,210.6210,78.4256,-25.3898,1,0
0000995641,3,-0.5758,-0.3153,0.6904,-0.3039,-1573,297,-58,-2491,27,71,1211,957,-235,200.3891,80.6632,-31.7355,1,0
0000995662,3,-0.6061,-0.3049,0.6854,-0.2643,-1563,245,-183,-2443,-11,195,1058,998,-354,176.6824,82.7763,-50.8906,1,0
0000995683,3,-0.6271,-0.3000,0.6799,-0.2333,-1550,180,-293,-2447,11,303,943,940,-415,150.5701,83.1027,-73.8171,1,0
0000995704,3,-0.6448,-0.2961,0.6748,-0.2030,-1550,180,-293,-2467,-3,367,892,840,-449,128.6256,82.0705,-92.8135,1,0
0000995725,3,-0.6598,-0.2918,0.6705,-0.1730,-1531,106,-386,-2315,23,411,913,754,-459,114.4293,80.3209,-104.0897,1,0
0000995746,3,-0.6728,-0.2860,0.6672,-0.1429,-1513,27,-463,-2163,-39,427,950,658,-431,105.5234,78.3786,-109.9737,1,0
0000995767,3,-0.6871,-0.2767,0.6634,-0.1066,-1488,-50,-526,-1811,-51,259,946,617,-361,97.9160,76.0472,-113.7739,1,0
0000995788,3,-0.6973,-0.2668,0.6605,-0.0794,-1464,-120,-577,-1783,35,-115,975,544,-277,93.2076,74.4754,-115.3976,1,0
0000995809,3,-0.7057,-0.2541,0.6593,-0.0524,-1444,-193,-605,-1903,159,-403,1074,422,-238,89.7162,73.1767,-115.5963,1,0
0000995830,3,-0.7114,-0.2388,0.6605,-0.0249,-1444,-193,-605,-1927,215,-507,1150,297,-216,87.4809,72.1110,-114.2853,1,0
0000995851,3,-0.7144,-0.2221,0.6636,0.0021,-1429,-271,-612,-1919,3,-391,1176,141,-183,86.2957,71.2886,-111.8458,1,0
0000995872,3,-0.7148,-0.2042,0.6682,0.0279,-1421,-340,-599,-1979,-267,-227,1160,29,-107,85.9075,70.7265,-108.6275,1,0
0000995893,3,-0.7120,-0.1803,0.6763,0.0563,-1422,-399,-566,-2347,-575,151,1116,-93,-30,86.5259,70.5226,-103.6836,1,0
0000995914,3,-0.7085,-0.1612,0.6830,0.0750,-1427,-440,-532,-2423,-1079,463,966,-71,59,87.3783,70.6603,-99.7169,1,0
0000995935,3,-0.7070,-0.1442,0.6867,0.0884,-1432,-455,-516,-1931,-1367,467,725,25,133,87.3115,70.9992,-97.2707,1,0
0000995956,3,-0.7063,-0.1313,0.6889,0.0967,-1432,-455,-516,-1815,-1243,419,459,-1,115,87.0679,71.3857,-95.7707,1,0
0000995977,3,-0.7042,-0.1253,0.6915,0.1010,-1437,-464,-501,-1795,-1171,439,119,-150,-39,87.7715,71.5555,-94.2293,1,0
0000995998,3,-0.6992,-0.1285,0.6956,0.1032,-1442,-475,-483,-1891,-1259,599,-94,-210,-194,90.1410,71.1335,-91.9373,1,0
0000996019,3,-0.6940,-0.1376,0.6990,0.1039,-1444,-492,-464,-1959,-1319,715,-242,-274,-297,92.5617,70.3336,-90.2149,1,0
0000996040,3,-0.6870,-0.1506,0.7033,0.1034,-1448,-514,-436,-1927,-1211,775,-332,-402,-373,95.6292,69.2626,-88.2667,1,0
0000996061,3,-0.6769,-0.1663,0.7097,0.1026,-1453,-544,-395,-1767,-1127,779,-386,-524,-437,99.5739,67.9071,-85.6858,1,0
0000996082,3,-0.6646,-0.1846,0.7169,0.1011,-1453,-544,-395,-1667,-1075,791,-487,-663,-501,103.8319,66.2899,-83.0847,1,0
0000996103,3,-0.6453,-0.2111,0.7277,0.0972,-1458,-578,-346,-1631,-1055,799,-584,-781,-516,109.7119,63.9218,-79.7707,1,0
0000996124,3,-0.6271,-0.2339,0.7373,0.0914,-1463,-609,-287,-1659,-1107,751,-656,-882,-484,114.6711,61.8873,-77.2556,1,0
0000996145,3,-0.6074,-0.2566,0.7472,0.0827,-1470,-632,-222,-1779,-1147,643,-677,-956,-392,119.7032,59.9181,-74.9226,1,0
0000996166,3,-0.5865,-0.2773,0.7577,0.0713,-1481,-644,-150,-1843,-1199,527,-683,-1015,-267,124.8765,58.1267,-72.5506,1,0
0000996187,3,-0.5653,-0.2961,0.7679,0.0562,-1481,-644,-150,-1891,-1223,427,-732,-1036,-96,130.1050,56.5972,-70.2982,1,0
0000996208,3,-0.5394,-0.3182,0.7789,0.0327,-1493,-644,-78,-1951,-1223,391,-809,-1015,0,136.5349,55.0341,-67.9095,1,0
0000996229,3,-0.5196,-0.3368,0.7851,0.0106,-1505,-633,-12,-1659,-1203,347,-940,-977,64,141.4337,53.9757,-66.6462,1,0
0000996250,3,-0.5006,-0.3571,0.7885,-0.0147,-1515,-615,41,-1599,-1003,407,-1095,-933,140,146.1509,53.1172,-66.0304,1,0
0000996271,3,-0.4827,-0.3784,0.7887,-0.0430,-1529,-590,82,-1647,-855,527,-1208,-878,227,150.7110,52.5464,-65.9695,1,0
0000996292,3,-0.4659,-0.4001,0.7857,-0.0741,-1540,-554,118,-1739,-843,503,-1324,-826,374,155.2095,52.3211,-66.2910,1,0
0000996313,3,-0.4503,-0.4209,0.7799,-0.1085,-1540,-554,118,-1559,-651,267,-1346,-815,518,159.8288,52.5392,-66.7386,1,0
0000996334,3,-0.4316,-0.4416,0.7713,-0.1545,-1558,-504,156,-1567,-547,131,-1179,-860,637,166.1568,53.3441,-66.5610,1,0
0000996355,3,-0.4174,-0.4508,0.7656,-0.1909,-1572,-441,216,-1731,-583,-79,-951,-865,731,171.7393,54.2141,-65.2142,1,0
0000996376,3,-0.4052,-0.4552,0.7600,-0.2260,-1584,-369,280,-1911,-683,-247,-803,-792,780,177.4396,55.2493,-63.1753,1,0
0000996397,3,-0.3955,-0.4572,0.7534,-0.2588,-1590,-295,337,-2119,-851,-243,-738,-669,798,182.9283,56.3585,-60.9362,1,0
0000996418,3,-0.3893,-0.4597,0.7439,-0.2893,-1596,-220,367,-2311,-987,-227,-704,-377,815,187.7977,57.7000,-59.1347,1,0
0000996439,3,-0.3890,-0.4622,0.7293,-0.3211,-1596,-220,367,-2311,-975,-219,-538,-144,782,192.4929,59.8001,-57.5203,1,0
0000996460,3,-0.3931,-0.4629,0.7179,-0.3403,-1599,-147,373,-2323,-811,-179,-394,7,675,195.1769,61.5745,-56.5533,1,0
0000996481,3,-0.3993,-0.4629,0.7080,-0.3536,-1604,-85,363,-2239,-571,-155,-214,118,552,196.9096,63.2272,-55.9017,1,0
0000996502,3,-0.4077,-0.4611,0.6999,-0.3623,-1605,-31,344,-2327,-335,-187,-50,194,492,197.9559,64.8023,-55.2981,1,0
0000996523,3,-0.4186,-0.4571,0.6934,-0.3675,-1608,22,314,-2379,-339,-163,179,291,452,198.4895,66.4147,-54.6306,1,0
0000996544,3,-0.4364,-0.4484,0.6875,-0.3686,-1608,69,272,-2331,-403,-271,398,365,425,198.3808,68.5246,-53.6405,1,0
0000996565,3,-0.4542,-0.4376,0.6851,-0.3646,-1608,69,272,-2379,-55,-363,638,450,398,197.6168,70.2783,-52.6825,1,0
0000996586,3,-0.4759,-0.4236,0.6835,-0.3562,-1610,121,214,-2471,-43,-271,839,573,397,195.9559,72.2389,-51.8966,1,0
0000996607,3,-0.4997,-0.4077,0.6821,-0.3445,-1607,168,138,-2443,-111,-175,945,617,364,193.3637,74.3102,-51.5914,1,0
0000996628,3,-0.5233,-0.3907,0.6813,-0.3306,-1601,204,58,-2423,-71,-311,1022,603,311,190.1103,76.2687,-51.7110,1,0
0000996649,3,-0.5469,-0.3716,0.6817,-0.3134,-1593,222,-25,-2431,-227,-191,1193,616,249,185.7787,78.0827,-52.5013,1,0
0000996670,3,-0.5761,-0.3449,0.6839,-0.2854,-1585,218,-114,-2267,-339,-3,1367,619,106,177.6577,80.0133,-55.4927,1,0
0000996691,3,-0.5976,-0.3233,0.6866,-0.2588,-1585,218,-114,-2131,-467,7,1389,590,-9,168.4463,81.0842,-60.3239,1,0
0000996712,3,-0.6164,-0.3032,0.6891,-0.2306,-1576,188,-196,-2151,-467,27,1345,565,-103,157.2852,81.6698,-67.1856,1,0
0000996733,3,-0.6331,-0.2845,0.6911,-0.2017,-1564,145,-271,-2091,-471,111,1293,533,-158,145.1761,81.8050,-75.1533,1,0
0000996754,3,-0.6476,-0.2659,0.6928,-0.1732,-1554,94,-333,-1903,-479,171,1295,446,-143,134.1186,81.6367,-82.1518,1,0
0000996775,3,-0.6621,-0.2411,0.6961,-0.1379,-1544,37,-375,-1863,-647,223,1291,323,-160,123.8356,81.1912,-87.3507,1,0
0000996796,3,-0.6694,-0.2217,0.7003,-0.1112,-1544,37,-375,-1847,-727,367,1220,185,-176,119.2675,80.6924,-88.0531,1,0
0000996817,3,-0.6731,-0.2041,0.7056,-0.0860,-1541,-20,-393,-2031,-695,391,1109,50,-235,117.2536,80.0646,-86.5095,1,0
0000996838,3,-0.6733,-0.1899,0.7118,-0.0625,-1539,-84,-390,-2331,-707,311,959,-40,-303,117.1381,79.1974,-83.5123,1,0
0000996859,3,-0.6709,-0.1788,0.7185,-0.0411,-1545,-144,-371,-2311,-523,67,840,-156,-329,118.0910,78.1704,-79.8982,1,0
0000996880,3,-0.6641,-0.1660,0.7289,-0.0146,-1547,-208,-336,-2315,-683,115,887,-237,-392,120.5567,76.6279,-74.2157,1,0
0000996901,3,-0.6587,-0.1560,0.7360,0.0089,-1547,-281,-308,-2183,-843,211,893,-141,-457,121.1512,75.1963,-70.8866,1,0
0000996922,3,-0.6551,-0.1484,0.7400,0.0334,-1547,-281,-308,-2103,-991,303,793,4,-536,119.7443,73.6866,-69.6783,1,0
0000996943,3,-0.6534,-0.1446,0.7409,0.0574,-1536,-358,-293,-2123,-1035,379,641,97,-598,117.0157,72.0937,-70.1446,1,0
0000996964,3,-0.6518,-0.1444,0.7403,0.0795,-1519,-435,-288,-2151,-1011,423,461,58,-624,114.2333,70.3989,-71.1061,1,0
0000996985,3,-0.6476,-0.1478,0.7403,0.1031,-1501,-506,-276,-2019,-939,471,339,-55,-584,112.1243,68.1978,-71.5606,1,0
0000997006,3,-0.6422,-0.1515,0.7419,0.1190,-1487,-571,-254,-1747,-939,627,299,-141,-542,111.5805,66.4728,-71.1044,1,0
0000997027,3,-0.6354,-0.1559,0.7444,0.1333,-1471,-627,-222,-1571,-959,715,234,-214,-527,111.5820,64.7527,-70.2999,1,0
0000997048,3,-0.6270,-0.1626,0.7478,0.1458,-1471,-627,-222,-1411,-963,819,128,-300,-548,112.0837,62.9116,-69.3091,1,0
0000997069,3,-0.6170,-0.1726,0.7517,0.1565,-1455,-684,-186,-1415,-1031,819,-1,-405,-588,112.9391,60.8734,-68.4056,1,0
0000997090,3,-0.6045,-0.1861,0.7568,0.1650,-1434,-740,-142,-1431,-1051,871,-164,-575,-592,114.3385,58.6013,-67.4334,1,0
0000997111,3,-0.5849,-0.2059,0.7658,0.1706,-1416,-790,-90,-1667,-935,943,-242,-755,-494,117.1547,55.6425,-65.8343,1,0
0000997132,3,-0.5669,-0.2208,0.7752,0.1701,-1407,-819,-21,-1915,-915,919,-251,-845,-326,120.2001,53.4926,-64.1260,1,0
0000997153,3,-0.5485,-0.2330,0.7857,0.1657,-1404,-830,47,-2063,-907,899,-258,-881,-155,123.6331,51.6991,-62.1465,1,0
0000997174,3,-0.5307,-0.2435,0.7965,0.1571,-1404,-830,47,-1999,-1031,943,-303,-886,9,127.2838,50.2508,-60.1672,1,0
0000997195,3,-0.5140,-0.2541,0.8065,0.1441,-1407,-825,111,-1899,-1067,1011,-480,-854,138,131.0650,49.0995,-58.4539,1,0
0000997216,3,-0.4956,-0.2699,0.8164,0.1228,-1414,-810,160,-1763,-1059,1011,-644,-795,210,135.6399,47.9779,-57.1603,1,0
0000997237,3,-0.4831,-0.2852,0.8215,0.1017,-1423,-791,191,-1639,-947,911,-803,-738,289,139.1759,47.3762,-56.8318,1,0
0000997258,3,-0.4724,-0.3019,0.8244,0.0777,-1438,-762,208,-1483,-795,759,-922,-683,351,142.6498,47.0487,-56.9606,1,0
0000997279,3,-0.4628,-0.3200,0.8250,0.0519,-1452,-738,217,-1407,-735,695,-1017,-629,380,146.0039,46.9271,-57.5194,1,0
0000997300,3,-0.4543,-0.3393,0.8233,0.0251,-1452,-738,217,-1483,-663,659,-1097,-575,389,149.1838,46.9709,-58.4499,1,0
0000997321,3,-0.4437,-0.3652,0.8183,-0.0097,-1467,-707,215,-1727,-559,555,-1195,-571,392,153.0443,47.1612,-60.0455,1,0
0000997342,3,-0.4340,-0.3864,0.8129,-0.0389,-1482,-676,216,-1931,-507,463,-1214,-618,428,156.3049,47.3600,-61.3613,1,0
0000997363,3,-0.4236,-0.4054,0.8071,-0.0695,-1497,-636,229,-2063,-475,411,-1147,-651,508,159.8946,47.7386,-62.3128,1,0
0000997384,3,-0.4134,-0.4208,0.8011,-0.1010,-1517,-587,248,-2055,-471,423,-1045,-649,602,163.7365,48.3615,-62.7642,1,0
0000997405,3,-0.4044,-0.4329,0.7945,-0.1337,-1538,-519,277,-2027,-567,455,-999,-633,748,167.8062,49.3106,-62.7831,1,0
0000997426,3,-0.3943,-0.4449,0.7841,-0.1782,-1538,-519,277,-2111,-563,407,-1009,-675,884,173.4984,50.9790,-62.2414,1,0
0000997447,3,-0.3849,-0.4516,0.7752,-0.2166,-1559,-442,319,-2111,-355,283,-943,-778,951,178.8902,52.4196,-60.9946,1,0
0000997468,3,-0.3744,-0.4536,0.7673,-0.2555,-1568,-355,383,-2179,-295,211,-773,-861,992,185.0888,53.7487,-58.6017,1,0
0000997489,3,-0.3652,-0.4501,0.7604,-0.2931,-1571,-256,460,-2227,-327,167,-540,-809,1061,191.7616,55.0042,-55.1069,1,0
0000997510,3,-0.3610,-0.4408,0.7540,-0.3269,-1566,-146,523,-2455,-511,163,-141,-583,1086,198.3846,56.3688,-50.7142,1,0
0000997531,3,-0.3636,-0.4262,0.7486,-0.3546,-1561,-31,560,-2671,-799,191,136,-348,1063,204.5314,57.8442,-45.6065,1,0
0000997552,3,-0.3747,-0.4063,0.7411,-0.3811,-1561,-31,560,-2747,-959,187,203,-86,995,211.2805,59.8916,-39.1453,1,0
0000997573,3,-0.3881,-0.3943,0.7328,-0.3962,-1552,71,558,-2551,-619,215,189,191,853,215.5025,61.7880,-34.8854,1,0
0000997594,3,-0.4049,-0.3855,0.7236,-0.4047,-1553,161,521,-2583,-55,211,276,415,681,218.4514,63.9097,-31.5528,1,0
0000997615,3,-0.4250,-0.3769,0.7157,-0.4064,-1556,231,458,-2727,283,75,484,550,529,220.2595,66.1524,-28.6937,1,0
0000997636,3,-0.4484,-0.3658,0.7100,-0.4012,-1562,291,368,-2987,671,-199,860,699,388,221.2191,68.4808,-25.8028,1,0
0000997657,3,-0.4851,-0.3455,0.7056,-0.3839,-1562,291,368,-3127,623,-127,1247,877,338,221.3697,71.7897,-21.6123,1,0
0000997678,3,-0.5204,-0.3252,0.7019,-0.3618,-1566,342,244,-2927,387,59,1462,1053,246,220.7211,74.9553,-17.9572,1,0
0000997699,3,-0.5566,-0.3060,0.6967,-0.3335,-1567,367,89,-2531,231,111,1477,1170,62,218.1348,78.4075,-15.9295,1,0
0000997720,3,-0.5903,-0.2913,0.6901,-0.3006,-1561,349,-74,-2323,67,35,1361,1223,-173,210.1426,81.8701,-19.4732,1,0
0000997741,3,-0.6191,-0.2835,0.6821,-0.2667,-1549,291,-225,-2195,167,27,995,1147,-416,187.9782,84.7132,-37.8586,1,0
0000997762,3,-0.6458,-0.2832,0.6713,-0.2282,-1533,218,-341,-2139,223,99,707,987,-510,136.0971,85.0820,-86.3409,1,0
0000997783,3,-0.6612,-0.2858,0.6638,-0.2011,-1533,218,-341,-2099,343,219,644,815,-523,111.9196,83.1280,-108.4261,1,0
0000997804,3,-0.6735,-0.2862,0.6589,-0.1741,-1515,143,-431,-2099,487,307,751,671,-508,101.6583,80.8368,-116.4562,1,0
0000997825,3,-0.6841,-0.2822,0.6568,-0.1451,-1497,59,-500,-1907,279,375,952,559,-474,96.4152,78.6527,-118.9311,1,0
0000997846,3,-0.6925,-0.2736,0.6575,-0.1149,-1483,-26,-547,-1671,47,231,1082,415,-416,93.6077,76.8049,-118.5047,1,0
0000997867,3,-0.6983,-0.2617,0.6608,-0.0854,-1474,-108,-565,-1615,-39,131,1121,191,-321,92.3348,75.3588,-116.3198,1,0
0000997888,3,-0.7005,-0.2443,0.6685,-0.0531,-1472,-178,-554,-1755,-207,-7,1045,3,-238,92.7635,74.2462,-111.7539,1,0
0000997909,3,-0.6984,-0.2302,0.6769,-0.0317,-1472,-178,-554,-1975,-375,55,960,-162,-178,94.5824,73.7717,-106.9792,1,0
0000997930,3,-0.6935,-0.2157,0.6872,-0.0136,-1479,-239,-521,-2199,-579,131,902,-302,-111,97.6515,73.5591,-101.2124,1,0
0000997951,3,-0.6869,-0.2004,0.6986,0.0014,-1492,-279,-472,-2311,-1119,279,834,-367,30,101.4949,73.5634,-94.8502,1,0
0000997972,3,-0.6801,-0.1844,0.7094,0.0126,-1508,-298,-420,-2543,-1615,431,678,-362,102,105.4946,73.8066,-88.6063,1,0
0000997993,3,-0.6719,-0.1702,0.7205,0.0214,-1519,-310,-378,-2659,-1647,479,401,-315,5,110.3235,73.9263,-81.8761,1,0
0000998014,3,-0.6659,-0.1680,0.7264,0.0264,-1526,-336,-350,-2227,-1395,391,136,-257,-186,113.0910,73.4406,-78.5212,1,0
0000998035,3,-0.6596,-0.1729,0.7307,0.0318,-1526,-336,-350,-1783,-1119,311,-21,-241,-362,114.9503,72.3740,-76.6433,1,0
0000998056,3,-0.6524,-0.1830,0.7345,0.0386,-1526,-378,-324,-1691,-915,299,-96,-262,-542,116.2745,70.7614,-75.6123,1,0
0000998077,3,-0.6437,-0.1963,0.7381,0.0481,-1520,-438,-298,-1615,-883,327,-81,-301,-720,117.2241,68.6496,-75.0166,1,0
0000998098,3,-0.6303,-0.2146,0.7434,0.0632,-1506,-514,-263,-1651,-1099,419,-60,-373,-785,118.4337,65.5097,-74.1466,1,0
0000998119,3,-0.6170,-0.2307,0.7486,0.0752,-1492,-593,-223,-1751,-1259,503,-113,-466,-821,119.7659,62.7610,-73.2301,1,0
0000998140,3,-0.6021,-0.2485,0.7539,0.0859,-1469,-668,-181,-1755,-1583,599,-203,-502,-814,121.2356,59.8991,-72.4344,1,0
0000998161,3,-0.5870,-0.2675,0.7584,0.0938,-1469,-668,-181,-1795,-1799,671,-308,-518,-739,122.7412,57.1566,-71.9724,1,0
0000998182,3,-0.5718,-0.2866,0.7624,0.0984,-1448,-733,-146,-1631,-1851,643,-385,-589,-636,124.3568,54.6344,-71.6947,1,0
0000998203,3,-0.5512,-0.3097,0.7683,0.0997,-1429,-781,-104,-1471,-1651,631,-403,-646,-529,126.9708,51.7440,-71.1131,1,0
0000998224,3,-0.5350,-0.3268,0.7728,0.0985,-1414,-821,-67,-1195,-1547,671,-409,-631,-469,129.1074,49.6921,-70.6902,1,0
0000998245,3,-0.5189,-0.3442,0.7766,0.0954,-1397,-855,-34,-979,-1375,671,-509,-651,-414,131.2523,47.7624,-70.4891,1,0
0000998266,3,-0.5030,-0.3625,0.7795,0.0893,-1397,-855,-34,-983,-1107,687,-598,-659,-341,133.5013,46.0053,-70.5504,1,0
0000998287,3,-0.4873,-0.3809,0.7817,0.0805,-1384,-880,-8,-983,-1019,723,-629,-699,-234,135.8551,44.4689,-70.7778,1,0
0000998308,3,-0.4716,-0.3978,0.7840,0.0692,-1376,-897,19,-1027,-971,667,-636,-717,-149,138.4419,43.1810,-70.8876,1,0
0000998329,3,-0.4531,-0.4158,0.7869,0.0511,-1377,-896,51,-1163,-1003,607,-571,-734,38,141.9508,42.1172,-70.8294,1,0
0000998350,3,-0.4398,-0.4256,0.7901,0.0338,-1388,-880,88,-1287,-1143,551,-485,-730,202,144.9951,41.7797,-70.3507,1,0
0000998371,3,-0.4283,-0.4323,0.7934,0.0138,-1409,-848,128,-1371,-1199,495,-455,-715,359,148.2077,41.8931,-69.6098,1,0
0000998392,3,-0.4187,-0.4373,0.7958,-0.0093,-1409,-848,128,-1467,-1167,415,-493,-693,504,151.5725,42.4235,-68.8057,1,0
0000998413,3,-0.4104,-0.4420,0.7968,-0.0362,-1434,-797,166,-1487,-1075,315,-612,-727,668,155.1963,43.3160,-68.0199,1,0
0000998434,3,-0.4001,-0.4483,0.7957,-0.0760,-1467,-731,205,-1527,-991,319,-719,-781,805,160.4117,44.8144,-66.9390,1,0
0000998455,3,-0.3917,-0.4542,0.7921,-0.1131,-1499,-652,248,-1627,-919,399,-878,-815,921,165.1701,46.3278,-66.0330,1,0
0000998476,3,-0.3828,-0.4621,0.7849,-0.1544,-1529,-562,294,-1619,-999,371,-1072,-847,1021,170.4117,48.0388,-65.2587,1,0
0000998497,3,-0.3719,-0.4709,0.7745,-0.2003,-1552,-464,358,-1627,-931,159,-1199,-973,1134,176.4378,49.8783,-64.2593,1,0
0000998518,3,-0.3570,-0.4783,0.7625,-0.2499,-1552,-464,358,-1939,-799,19,-1238,-1135,1159,183.6607,51.5752,-62.4336,1,0
0000998539,3,-0.3382,-0.4839,0.7460,-0.3083,-1560,-369,441,-2191,-935,-191,-996,-946,1103,192.8585,53.4028,-59.4471,1,0
0000998560,3,-0.3302,-0.4824,0.7339,-0.3459,-1561,-277,510,-2295,-1043,-255,-567,-667,1032,199.2131,54.9270,-56.5758,1,0
0000998581,3,-0.3299,-0.4746,0.7255,-0.3736,-1556,-183,560,-2303,-1419,-19,-134,-423,918,204.4749,56.4429,-53.1049,1,0
0000998602,3,-0.3340,-0.4653,0.7192,-0.3933,-1553,-103,583,-2227,-1259,11,-24,-217,735,208.6082,57.8249,-49.7682,1,0
0000998623,3,-0.3395,-0.4591,0.7132,-0.4065,-1552,-44,581,-2255,-903,-47,40,12,535,211.4064,59.0413,-47.4502,1,0
0000998644,3,-0.3509,-0.4518,0.7071,-0.4155,-1552,-44,581,-2375,-355,-351,203,169,470,213.5296,60.6624,-45.1622,1,0
0000998665,3,-0.3655,-0.4437,0.7036,-0.4177,-1557,12,559,-2331,395,-543,467,330,476,214.4632,62.2531,-43.2481,1,0
0000998686,3,-0.3874,-0.4304,0.7013,-0.4158,-1565,86,512,-2499,523,-567,824,491,572,215.1847,64.3246,-40.5223,1,0
0000998707,3,-0.4168,-0.4101,0.7007,-0.4088,-1573,179,439,-2715,303,-339,1243,614,591,215.9774,66.8417,-36.4988,1,0
0000998728,3,-0.4504,-0.3831,0.7032,-0.3949,-1575,260,346,-2779,-279,7,1644,654,434,216.6706,69.3795,-31.3243,1,0
0000998749,3,-0.4840,-0.3542,0.7075,-0.3738,-1580,300,232,-2683,-559,139,1691,749,191,216.4300,71.7442,-26.4180,1,0
0000998770,3,-0.5223,-0.3243,0.7122,-0.3389,-1580,300,232,-2719,-843,307,1519,792,-91,212.6597,74.5214,-23.8364,1,0
0000998791,3,-0.5470,-0.3092,0.7140,-0.3089,-1583,288,117,-2823,-671,199,1224,806,-290,205.9994,76.4422,-26.2265,1,0
0000998812,3,-0.5680,-0.3010,0.7131,-0.2797,-1587,247,4,-2971,-527,119,948,830,-392,196.0268,78.0956,-32.7325,1,0
0000998833,3,-0.5863,-0.2984,0.7093,-0.2532,-1586,195,-97,-2747,-123,-47,689,842,-403,182.8911,79.3665,-43.2355,1,0
0000998854,3,-0.6033,-0.2983,0.7031,-0.2295,-1577,147,-198,-2335,-7,-11,606,864,-342,167.4249,80.1662,-56.5791,1,0
0000998875,3,-0.6255,-0.2953,0.6939,-0.2000,-1577,147,-198,-2111,111,151,742,890,-280,146.2296,80.4825,-74.9194,1,0
0000998896,3,-0.6446,-0.2886,0.6862,-0.1743,-1561,99,-299,-1875,203,79,886,914,-228,129.1764,80.1337,-89.1879,1,0
0000998917,3,-0.6633,-0.2788,0.6787,-0.1474,-1538,48,-399,-1815,91,-103,958,853,-192,114.3042,79.2632,-100.9279,1,0
0000998938,3,-0.6788,-0.2677,0.6727,-0.1225,-1512,-2,-477,-1891,167,-203,907,662,-150,103.7171,78.2006,-108.4876,1,0
0000998959,3,-0.6906,-0.2545,0.6696,-0.0998,-1490,-48,-527,-2111,207,-119,971,488,-64,96.8478,77.3232,-112.3446,1,0
0000998980,3,-0.7030,-0.2306,0.6688,-0.0732,-1476,-85,-556,-2219,-71,-31,1098,329,137,90.2150,76.9120,-114.7604,1,0
0000999001,3,-0.7103,-0.2077,0.6703,-0.0556,-1476,-85,-556,-2207,-191,-51,1044,177,259,86.0674,77.2292,-115.5297,1,0
0000999022,3,-0.7147,-0.1845,0.6734,-0.0408,-1468,-104,-564,-2291,-255,-55,995,51,270,83.2176,77.8634,-115.2256,1,0
0000999043,3,-0.7170,-0.1617,0.6775,-0.0262,-1468,-125,-561,-2315,-431,-31,1003,8,238,81.4048,78.5466,-113.9473,1,0
0000999064,3,-0.7185,-0.1398,0.6812,-0.0100,-1469,-151,-553,-2311,-487,-15,1027,40,94,80.0663,79.0463,-112.1492,1,0
0000999085,3,-0.7201,-0.1162,0.6839,0.0150,-1467,-198,-550,-2211,-607,-59,1028,107,-93,78.6745,78.9545,-109.5674,1,0
0000999106,3,-0.7213,-0.1022,0.6840,0.0380,-1458,-265,-551,-2095,-555,-143,938,143,-268,77.7437,78.2244,-107.4900,1,0
0000999127,3,-0.7216,-0.0926,0.6834,0.0613,-1458,-265,-551,-1971,-539,-51,840,111,-363,77.3210,77.1262,-105.2280,1,0
0000999148,3,-0.7202,-0.0853,0.6834,0.0840,-1449,-335,-544,-1935,-559,71,783,27,-403,77.7763,75.9282,-102.3330,1,0
0000999169,3,-0.7168,-0.0802,0.6844,0.1064,-1440,-409,-523,-1931,-627,207,719,-82,-494,79.0886,74.6124,-98.7674,1,0
0000999190,3,-0.7112,-0.0777,0.6866,0.1293,-1432,-490,-490,-1875,-755,247,681,-185,-592,81.1143,73.0446,-94.6600,1,0
0000999211,3,-0.7007,-0.0789,0.6911,0.1587,-1420,-577,-441,-1843,-971,335,624,-293,-678,84.3846,70.6418,-89.0472,1,0
0000999232,3,-0.6903,-0.0839,0.6953,0.1816,-1404,-664,-387,-1895,-1167,383,479,-368,-759,87.0313,68.3561,-84.8967,1,0
0000999253,3,-0.6794,-0.0941,0.6992,0.2017,-1404,-664,-387,-1875,-1175,327,248,-395,-809,89.3663,65.7973,-81.7125,1,0
0000999274,3,-0.6685,-0.1085,0.7027,0.2179,-1380,-745,-339,-1787,-1043,387,71,-454,-782,91.4260,63.1660,-79.4550,1,0
0000999295,3,-0.6563,-0.1242,0.7077,0.2301,-1360,-811,-290,-1731,-955,627,-41,-606,-654,93.8146,60.6729,-77.3020,1,0
0000999316,3,-0.6386,-0.1447,0.7170,0.2390,-1342,-859,-234,-1691,-955,807,-186,-703,-536,97.5645,57.8459,-74.4717,1,0
0000999337,3,-0.6247,-0.1627,0.7251,0.2400,-1334,-891,-187,-1559,-991,1039,-355,-734,-407,100.7289,55.8722,-72.7166,1,0
0000999358,3,-0.6113,-0.1807,0.7336,0.2356,-1332,-902,-146,-1871,-763,1059,-470,-748,-245,104.0348,54.2718,-71.2902,1,0
0000999379,3,-0.5980,-0.1973,0.7429,0.2270,-1332,-902,-146,-1839,-675,947,-452,-806,-97,107.5885,53.0301,-69.8717,1,0
0000999400,3,-0.5833,-0.2102,0.7542,0.2162,-1342,-902,-99,-1839,-723,915,-372,-879,87,111.5873,52.0882,-67.8917,1,0
0000999421,3,-0.5641,-0.2225,0.7698,0.1990,-1360,-882,-38,-1899,-799,847,-370,-894,214,117.0178,51.2641,-64.9948,1,0
0000999442,3,-0.5492,-0.2315,0.7821,0.1818,-1383,-853,19,-1831,-915,787,-447,-906,309,121.5405,50.8028,-62.7384,1,0
0000999463,3,-0.5349,-0.2416,0.7936,0.1606,-1407,-816,72,-1835,-923,655,-598,-904,394,126.2401,50.4706,-60.7400,1,0
0000999484,3,-0.5214,-0.2541,0.8032,0.1356,-1431,-773,112,-1711,-923,651,-766,-886,446,130.9826,50.2387,-59.2384,1,0
0000999505,3,-0.5089,-0.2695,0.8105,0.1075,-1431,-773,112,-1759,-919,703,-948,-851,470,135.6671,50.0802,-58.3329,1,0
0000999526,3,-0.4973,-0.2879,0.8148,0.0768,-1452,-732,140,-1951,-835,699,-1111,-790,489,140.1806,50.0180,-58.0948,1,0
0000999547,3,-0.4846,-0.3133,0.8159,0.0359,-1475,-682,154,-2207,-671,631,-1231,-708,529,145.5346,50.2038,-58.5520,1,0
0000999568,3,-0.4755,-0.3334,0.8141,0.0017,-1496,-632,166,-2239,-539,547,-1246,-662,589,149.7306,50.6263,-59.1239,1,0
0000999589,3,-0.4669,-0.3519,0.8106,-0.0334,-1520,-570,179,-1987,-511,415,-1220,-622,663,153.9569,51.3032,-59.6104,1,0
0000999610,3,-0.4593,-0.3678,0.8055,-0.0696,-1545,-499,197,-1907,-443,407,-1164,-580,772,158.3327,52.2982,-59.8234,1,0
0000999631,3,-0.4527,-0.3816,0.7988,-0.1064,-1545,-499,197,-2163,-359,383,-1140,-508,844,162.8190,53.5583,-59.7858,1,0
0000999652,3,-0.4474,-0.3956,0.7875,-0.1524,-1565,-416,211,-2207,-331,275,-1071,-412,914,168.3573,55.6027,-59.5006,1,0
0000999673,3,-0.4440,-0.4032,0.7777,-0.1883,-1585,-330,231,-2183,-47,63,-937,-459,923,173.0517,57.3974,-58.6173,1,0
0000999694,3,-0.4384,-0.4066,0.7703,-0.2217,-1593,-243,272,-2291,-71,135,-718,-547,861,178.3421,58.8331,-56.5867,1,0
0000999715,3,-0.4335,-0.4055,0.7644,-0.2516,-1597,-161,315,-2347,-327,239,-535,-472,845,183.8107,60.0854,-53.6832,1,0
0000999736,3,-0.4322,-0.4024,0.7576,-0.2781,-1597,-161,315,-2507,-563,327,-378,-244,829,188.8566,61.4826,-50.6826,1,0
0000999757,3,-0.4360,-0.3969,0.7481,-0.3046,-1596,-76,337,-2727,-767,419,-226,-79,765,194.1825,63.3923,-47.1069,1,0
0000999778,3,-0.4418,-0.3923,0.7402,-0.3210,-1596,0,339,-2783,-787,399,-182,31,667,197.6828,64.9380,-44.5356,1,0
0000999799,3,-0.4483,-0.3892,0.7321,-0.3341,-1593,64,332,-2623,-947,223,-158,111,577,200.5185,66.4100,-42.4826,1,0
0000999820,3,-0.4557,-0.3860,0.7247,-0.3438,-1592,116,314,-2295,-819,219,-31,171,476,202.8107,67.8009,-40.6420,1,0
0000999841,3,-0.4647,-0.3824,0.7189,-0.3478,-1592,145,281,-2211,-447,135,135,310,265,203.9151,69.0918,-39.4250,1,0
0000999862,3,-0.4781,-0.3796,0.7130,-0.3449,-1592,145,281,-2415,107,-379,211,448,127,202.8921,70.6729,-39.7266,1,0
0000999883,3,-0.4919,-0.3789,0.7075,-0.3375,-1597,162,226,-2667,451,-799,284,629,62,199.9759,72.1387,-41.7184,1,0
0000999904,3,-0.5101,-0.3772,0.7009,-0.3260,-1600,172,144,-2739,527,-879,471,806,76,195.1262,73.9377,-45.1669,1,0
0000999925,3,-0.5328,-0.3712,0.6948,-0.3092,-1600,179,38,-2695,503,-819,809,910,55,188.0611,75.9139,-49.9369,1,0
0000999946,3,-0.5586,-0.3600,0.6908,-0.2848,-1593,163,-82,-2555,183,-659,1213,1001,-77,177.6820,77.6546,-56.9148,1,0
0000999967,3,-0.5855,-0.3453,0.6883,-0.2533,-1580,122,-209,-2475,-11,-511,1375,1030,-166,163.3255,78.8018,-67.0102,1,0
0000999988,3,-0.6181,-0.3239,0.6857,-0.2072,-1580,122,-209,-2335,-287,-279,1511,1020,-241,142.2278,79.0532,-82.0994,1,0
0001000009,3,-0.6414,-0.3048,0.6835,-0.1688,-1559,57,-326,-2139,-311,-31,1543,921,-240,126.8565,78.4484,-92.4854,1,0
0001000030,3,-0.6603,-0.2844,0.6825,-0.1317,-1536,-14,-416,-1983,-403,91,1500,721,-242,115.4855,77.4712,-98.9509,1,0
0001000051,3,-0.6735,-0.2640,0.6836,-0.0975,-1516,-90,-467,-1851,-527,243,1411,500,-223,108.3831,76.4492,-101.4480,1,0
0001000072,3,-0.6821,-0.2438,0.6861,-0.0669,-1504,-157,-490,-1783,-651,403,1276,287,-164,104.0849,75.6249,-101.5057,1,0
0001000093,3,-0.6881,-0.2194,0.6908,-0.0340,-1497,-214,-491,-1743,-799,439,1153,167,-118,101.2642,74.9339,-99.5652,1,0
0001000114,3,-0.6898,-0.2017,0.6952,-0.0121,-1497,-214,-491,-1791,-935,435,1004,42,-96,100.4017,74.5815,-97.1511,1,0
0001000135,3,-0.6887,-0.1864,0.7006,0.0065,-1499,-265,-477,-1863,-1011,439,864,-61,-95,100.9267,74.2901,-93.8329,1,0
0001000156,3,-0.6861,-0.1732,0.7062,0.0225,-1501,-301,-452,-1871,-1007,459,768,-104,-96,102.0252,74.0045,-90.3307,1,0
0001000177,3,-0.6832,-0.1611,0.7113,0.0377,-1503,-338,-430,-1755,-1051,523,728,-74,-107,103.0961,73.6790,-87.0227,1,0
0001000198,3,-0.6799,-0.1482,0.7160,0.0561,-1503,-376,-409,-1619,-1219,663,621,-54,-160,103.7818,73.1276,-83.7666,1,0
0001000219,3,-0.6767,-0.1420,0.7192,0.0688,-1501,-411,-384,-1571,-1275,751,445,-110,-208,104.4110,72.5135,-81.5920,1,0
0001000240,3,-0.6716,-0.1398,0.7233,0.0791,-1501,-411,-384,-1595,-1235,803,303,-199,-251,105.7775,71.7016,-79.2060,1,0
0001000261,3,-0.6648,-0.1405,0.7283,0.0886,-1503,-450,-352,-1599,-1231,831,251,-303,-329,107.6287,70.6478,-76.6363,1,0
0001000282,3,-0.6551,-0.1441,0.7350,0.0992,-1502,-495,-305,-1623,-1247,875,197,-431,-477,110.0269,69.1380,-73.6758,1,0
0001000303,3,-0.6401,-0.1530,0.7443,0.1132,-1499,-552,-252,-1659,-1303,903,120,-499,-550,113.0157,66.6747,-70.2777,1,0
0001000324,3,-0.6273,-0.1625,0.7515,0.1238,-1490,-607,-196,-1703,-1375,907,56,-514,-568,115.0625,64.5025,-68.1578,1,0
0001000345,3,-0.6138,-0.1742,0.7585,0.1325,-1490,-607,-196,-1667,-1323,859,-76,-549,-564,116.9862,62.2473,-66.4963,1,0
0001000366,3,-0.5993,-0.1887,0.7656,0.1382,-1480,-661,-145,-1567,-1311,999,-224,-659,-538,119.0805,59.9396,-65.1631,1,0
0001000387,3,-0.5825,-0.2063,0.7739,0.1389,-1467,-705,-86,-1547,-1199,1111,-464,-807,-414,121.8492,57.5906,-63.8424,1,0
0001000408,3,-0.5649,-0.2253,0.7824,0.1341,-1460,-736,-30,-1743,-1107,1179,-562,-844,-295,125.0495,55.4398,-62.6982,1,0
0001000429,3,-0.5430,-0.2486,0.7926,0.1232,-1453,-750,26,-1607,-1111,1179,-566,-854,-187,129.2303,53.0826,-61.4934,1,0
0001000450,3,-0.5256,-0.2641,0.8009,0.1122,-1453,-755,82,-1683,-935,1059,-520,-853,-70,132.7178,51.5029,-60.3488,1,0
0001000471,3,-0.5085,-0.2773,0.8091,0.0997,-1453,-755,82,-1563,-939,915,-472,-859,8,136.2386,50.1282,-59.1180,1,0
0001000492,3,-0.4909,-0.2889,0.8175,0.0852,-1455,-753,143,-1387,-1035,755,-494,-895,109,139.9718,48.8846,-57.7298,1,0
0001000513,3,-0.4740,-0.2999,0.8251,0.0673,-1460,-738,203,-1351,-1207,647,-573,-856,258,143.8675,47.8876,-56.4350,1,0
0001000534,3,-0.4556,-0.3137,0.8321,0.0408,-1466,-713,253,-1339,-1295,563,-663,-784,358,148.6937,47.1001,-55.2444,1,0
0001000555,3,-0.4431,-0.3257,0.8351,0.0164,-1478,-678,287,-1415,-1319,463,-779,-725,446,152.4901,46.8248,-54.7201,1,0
0001000576,3,-0.4321,-0.3396,0.8354,-0.0114,-1491,-639,311,-1659,-1151,431,-939,-677,545,156.3401,46.8599,-54.6164,1,0
0001000597,3,-0.4236,-0.3547,0.8324,-0.0431,-1491,-639,311,-1611,-1087,359,-1075,-576,707,160.2464,47.3747,-54.8991,1,0
0001000618,3,-0.4171,-0.3703,0.8261,-0.0802,-1512,-578,321,-1631,-851,195,-1258,-615,933,164.5749,48.4668,-55.2640,1,0
0001000639,3,-0.4071,-0.3903,0.8150,-0.1331,-1535,-500,339,-1979,-491,7,-1320,-677,1003,170.9454,50.1250,-55.4175,1,0
0001000660,3,-0.3984,-0.4031,0.8049,-0.1760,-1552,-415,373,-2539,-403,-119,-1162,-661,1051,176.5002,51.5585,-54.8955,1,0
0001000681,3,-0.3924,-0.4086,0.7954,-0.2154,-1565,-320,415,-2635,-303,-439,-768,-573,1083,182.1009,53.1474,-53.3240,1,0
0001000702,3,-0.3904,-0.4045,0.7886,-0.2492,-1572,-211,452,-2087,-559,-183,-349,-463,1093,187.7064,54.8170,-50.3098,1,0
0001000723,3,-0.3949,-0.3936,0.7827,-0.2765,-1572,-211,452,-1755,-707,275,102,-125,1052,192.8452,56.7073,-46.4432,1,0
0001000744,3,-0.4058,-0.3786,0.7775,-0.2958,-1575,-102,462,-1871,-671,667,295,59,896,197.1266,58.7541,-42.2361,1,0
0001000765,3,-0.4214,-0.3602,0.7720,-0.3110,-1576,-4,452,-2123,-863,787,317,110,712,201.3674,60.9985,-37.3404,1,0
0001000786,3,-0.4308,-0.3498,0.7677,-0.3204,-1574,64,443,-2247,-927,663,122,84,553,204.2155,62.3317,-34.2061,1,0
0001000807,3,-0.4371,-0.3458,0.7623,-0.3290,-1572,110,427,-2335,-635,679,-86,133,421,206.4206,63.3736,-32.3041,1,0
0001000828,3,-0.4442,-0.3443,0.7555,-0.3367,-1571,162,399,-2739,-59,427,45,253,463,208.1881,64.5570,-30.9696,1,0
0001000849,3,-0.4564,-0.3369,0.7492,-0.3419,-1571,162,399,-2991,415,63,455,367,582,210.3704,66.1049,-28.3939,1,0
0001000870,3,-0.4827,-0.3158,0.7420,-0.3417,-1568,233,347,-3131,575,-191,877,584,632,213.9202,68.7644,-22.5428,1,0
0001000891,3,-0.5126,-0.2934,0.7353,-0.3324,-1568,314,248,-2931,499,-143,1197,883,529,216.5565,71.5987,-16.7045,1,0
0001000912,3,-0.5472,-0.2720,0.7266,-0.3140,-1563,359,99,-2883,459,-331,1311,1152,302,217.8718,75.0302,-11.5371,1,0
0001000933,3,-0.5843,-0.2546,0.7147,-0.2880,-1554,359,-83,-2823,363,-495,1303,1394,78,217.0423,79.0748,-8.3017,1,0
0001000954,3,-0.6207,-0.2438,0.6993,-0.2574,-1554,359,-83,-2531,291,-415,1046,1497,-216,210.6613,83.5348,-10.9243,1,0
0001000975,3,-0.6581,-0.2408,0.6788,-0.2194,-1529,312,-262,-2483,299,-391,772,1290,-400,153.2666,87.5877,-64.7225,1,0
0001000996,3,-0.6787,-0.2426,0.6662,-0.1917,-1505,247,-399,-2371,579,-103,686,988,-498,94.1388,85.7579,-121.6530,1,0
0001001017,3,-0.6938,-0.2431,0.6579,-0.1637,-1481,170,-496,-2315,679,127,761,766,-514,82.4292,82.9363,-131.0726,1,0
0001001038,3,-0.7055,-0.2399,0.6532,-0.1348,-1462,81,-567,-2131,623,207,931,604,-479,78.9437,80.4802,-131.8909,1,0
0001001059,3,-0.7156,-0.2315,0.6507,-0.1046,-1442,0,-618,-1919,291,215,1111,490,-315,76.7036,78.4327,-130.9402,1,0
0001001080,3,-0.7264,-0.2132,0.6497,-0.0690,-1442,0,-618,-1763,-47,67,1174,362,-139,73.5588,76.7318,-129.6220,1,0
0001001101,3,-0.7322,-0.1946,0.6512,-0.0440,-1430,-69,-650,-1827,-103,-171,1151,176,-18,71.5206,76.1147,-128.0467,1,0
0001001122,3,-0.7344,-0.1746,0.6555,-0.0219,-1423,-126,-649,-1903,-163,-235,1114,17,26,70.7112,76.0393,-125.3773,1,0
0001001143,3,-0.7341,-0.1556,0.6609,-0.0013,-1425,-181,-636,-2123,-455,-287,1036,-62,-15,71.0378,76.1230,-121.7974,1,0
0001001164,3,-0.7323,-0.1395,0.6662,0.0187,-1427,-237,-616,-2195,-655,-419,936,-70,-104,72.2704,76.0670,-117.6024,1,0
0001001185,3,-0.7300,-0.1256,0.6707,0.0385,-1429,-291,-599,-2219,-683,-415,892,-64,-131,73.6814,75.8264,-113.4366,1,0
0001001206,3,-0.7271,-0.1111,0.6746,0.0615,-1429,-291,-599,-2151,-691,-315,746,-28,-166,75.1062,75.3434,-108.9450,1,0
0001001227,3,-0.7251,-0.1033,0.6764,0.0772,-1427,-341,-580,-2187,-719,-219,569,-9,-204,75.9742,74.8067,-106.1578,1,0
0001001248,3,-0.7236,-0.0991,0.6770,0.0907,-1424,-384,-569,-2239,-623,-151,437,28,-251,76.5428,74.1084,-104.1437,1,0
0001001269,3,-0.7229,-0.0969,0.6762,0.1037,-1416,-428,-564,-2203,-595,-47,397,76,-284,76.6137,73.2475,-102.8305,1,0
0001001290,3,-0.7228,-0.0950,0.6745,0.1166,-1407,-470,-562,-2103,-643,39,378,103,-272,76.2607,72.3469,-101.9686,1,0
0001001311,3,-0.7227,-0.0928,0.6721,0.1319,-1393,-514,-562,-2071,-679,35,361,108,-278,75.7074,71.2526,-101.0783,1,0
0001001332,3,-0.7232,-0.0922,0.6691,0.1442,-1393,-514,-562,-1835,-803,159,313,159,-325,74.9904,70.2512,-100.7292,1,0
0001001353,3,-0.7243,-0.0939,0.6652,0.1555,-1375,-557,-569,-1727,-803,255,194,160,-356,74.1360,69.1103,-100.7856,1,0
0001001374,3,-0.7242,-0.0982,0.6624,0.1647,-1357,-596,-571,-1567,-759,347,95,15,-363,74.0328,67.9806,-100.4805,1,0
