Time(ms),Interval,Qx,Qy,Qz,Qw,Mx,My,Mz,Ax,Ay,Az,Rx,Ry,Rz,H1,P1,R1,H2,P2,R2,CalStable,MagTransient
0000979744,5,-0.3090,0.5959,0.3190,0.6691,-1101,-878,824,-2107,-103,219,-4,2,0,34.1700,84.0086,-18.6284,1,1
0000979765,5,-0.3091,0.5959,0.3190,0.6690,-1102,-874,826,-2103,-107,223,-4,3,1,34.1719,84.0181,-18.6408,1,1
0000979786,5,-0.3092,0.5960,0.3191,0.6689,-1101,-877,823,-2099,-111,235,-6,5,3,34.2091,84.0322,-18.6220,1,1
0000979807,5,-0.3093,0.5960,0.3193,0.6687,-1101,-877,823,-2115,-127,239,-6,2,2,34.2627,84.0475,-18.5946,1,1
0000979828,5,-0.3094,0.5960,0.3194,0.6686,-1102,-874,825,-2115,-127,235,-6,0,1,34.3001,84.0528,-18.5775,1,1
0000979849,5,-0.3095,0.5959,0.3195,0.6686,-1104,-873,825,-2115,-123,219,-8,-1,0,34.3060,84.0489,-18.5935,1,1
0000979870,5,-0.3097,0.5957,0.3197,0.6686,-1104,-873,825,-2103,-99,219,-10,-2,0,34.3409,84.0417,-18.5892,1,1
0000979891,5,-0.3098,0.5956,0.3199,0.6685,-1104,-874,823,-2103,-103,219,-4,-2,0,34.3633,84.0331,-18.5884,1,1
0000979912,5,-0.3097,0.5956,0.3199,0.6686,-1101,-871,825,-2103,-107,219,3,1,1,34.4082,84.0307,-18.5419,1,1
0000979933,5,-0.3096,0.5957,0.3198,0.6686,-1101,-871,825,-2111,-119,211,3,1,2,34.4419,84.0353,-18.4963,1,1
0000979954,5,-0.3096,0.5957,0.3198,0.6686,-1104,-873,822,-2115,-119,203,1,0,2,34.4769,84.0390,-18.4527,1,1
0000979975,5,-0.3095,0.5957,0.3199,0.6685,-1101,-873,821,-2111,-107,211,-4,-1,3,34.5765,84.0394,-18.3604,1,1
0000979996,5,-0.3096,0.5957,0.3201,0.6685,-1101,-873,821,-2115,-107,223,-4,0,5,34.7120,84.0389,-18.2407,1,1
0000980017,5,-0.3095,0.5958,0.3202,0.6684,-1105,-874,821,-2107,-115,223,0,3,7,34.8788,84.0502,-18.0811,1,1
0000980038,5,-0.3094,0.5960,0.3203,0.6682,-1104,-869,820,-2115,-111,219,5,5,7,35.0829,84.0734,-17.8689,1,1
0000980059,5,-0.3091,0.5961,0.3202,0.6682,-1104,-869,820,-2115,-119,227,7,3,6,35.2218,84.0913,-17.7071,1,1
0000980080,5,-0.3089,0.5963,0.3202,0.6681,-1104,-872,821,-2087,-99,243,5,2,6,35.3888,84.1052,-17.5197,1,1
0000980101,5,-0.3087,0.5965,0.3202,0.6681,-1108,-869,819,-2099,-103,235,8,1,7,35.5667,84.1157,-17.3214,1,1
0000980122,5,-0.3084,0.5966,0.3202,0.6682,-1108,-869,819,-2103,-111,227,15,0,8,35.7772,84.1238,-17.0740,1,1
0000980143,5,-0.3077,0.5970,0.3199,0.6682,-1109,-867,820,-2131,-127,223,26,3,10,36.0815,84.1427,-16.6862,1,1
0000980164,5,-0.3071,0.5974,0.3197,0.6683,-1109,-866,819,-2127,-119,215,24,4,13,36.3838,84.1620,-16.3058,1,1
0000980185,5,-0.3065,0.5978,0.3196,0.6683,-1109,-866,819,-2115,-119,227,17,5,15,36.7659,84.1884,-15.8620,1,1
0000980206,5,-0.3061,0.5981,0.3195,0.6682,-1111,-863,815,-2111,-127,227,11,4,14,37.1444,84.2168,-15.4426,1,1
0000980227,5,-0.3057,0.5984,0.3196,0.6681,-1115,-863,815,-2111,-135,215,9,3,14,37.5460,84.2405,-15.0108,1,1
0000980248,5,-0.3054,0.5986,0.3198,0.6680,-1115,-863,815,-2111,-123,187,1,-3,14,38.0496,84.2513,-14.4938,1,1
0000980269,5,-0.3051,0.5986,0.3202,0.6679,-1116,-858,814,-2099,-91,167,-1,-8,16,38.5336,84.2441,-14.0151,1,1
0000980290,5,-0.3047,0.5985,0.3205,0.6680,-1115,-859,816,-2091,-63,167,8,-14,15,39.0946,84.2205,-13.4459,1,1
0000980311,5,-0.3039,0.5984,0.3206,0.6684,-1115,-859,816,-2139,-75,183,33,-25,11,39.6385,84.1666,-12.8403,1,1
0000980332,5,-0.3028,0.5984,0.3203,0.6691,-1115,-853,821,-2099,-87,203,49,-25,6,40.0901,84.0945,-12.2725,1,1
0000980353,5,-0.3012,0.5985,0.3195,0.6701,-1120,-848,825,-2075,-99,215,65,-25,3,40.4412,84.0047,-11.7016,1,1
0000980374,5,-0.2995,0.5987,0.3185,0.6711,-1120,-848,825,-2055,-119,231,84,-28,2,40.6564,83.9256,-11.2536,1,1
0000980395,5,-0.2975,0.5988,0.3173,0.6724,-1118,-845,832,-2087,-151,255,101,-40,0,40.8899,83.8204,-10.7293,1,1
0000980416,5,-0.2953,0.5987,0.3161,0.6741,-1113,-842,845,-2071,-187,291,88,-58,-4,41.0673,83.6672,-10.2512,1,1
0000980437,5,-0.2934,0.5983,0.3152,0.6758,-1113,-842,845,-2043,-179,315,79,-68,-7,41.2087,83.4743,-9.8562,1,1
0000980458,5,-0.2911,0.5971,0.3142,0.6782,-1108,-833,850,-2031,-171,315,75,-89,-12,41.3024,83.1596,-9.4785,1,1
0000980479,5,-0.2891,0.5958,0.3134,0.6806,-1100,-829,862,-2015,-179,327,78,-105,-17,41.2771,82.8526,-9.2661,1,1
0000980500,5,-0.2871,0.5942,0.3128,0.6831,-1100,-829,862,-2031,-187,363,68,-121,-20,41.2595,82.4931,-9.0592,1,1
0000980521,5,-0.2853,0.5922,0.3124,0.6858,-1091,-829,873,-2031,-183,383,59,-128,-23,41.1886,82.1020,-8.9443,1,1
0000980542,5,-0.2835,0.5902,0.3119,0.6885,-1078,-824,885,-2011,-175,423,70,-132,-30,41.0514,81.6966,-8.8853,1,1
0000980563,5,-0.2807,0.5875,0.3105,0.6925,-1078,-824,885,-1975,-179,483,108,-143,-43,40.6113,81.1479,-8.9706,1,1
0000980584,5,-0.2779,0.5854,0.3087,0.6962,-1066,-817,897,-1987,-223,507,140,-152,-48,40.1530,80.6698,-9.0306,1,1
0000980605,5,-0.2744,0.5835,0.3064,0.7002,-1054,-804,913,-2055,-327,551,172,-153,-54,39.6604,80.1830,-9.0257,1,1
0000980626,5,-0.2708,0.5817,0.3035,0.7044,-1054,-804,913,-2335,-383,523,184,-142,-64,39.0068,79.6960,-9.1199,1,1
0000980647,5,-0.2673,0.5803,0.3004,0.7082,-1044,-793,923,-2475,-355,419,180,-106,-65,38.2871,79.2718,-9.2682,1,1
0000980668,5,-0.2637,0.5795,0.2963,0.7120,-1040,-781,927,-2199,-171,303,165,-56,-60,37.2638,78.9260,-9.6159,1,1
0000980689,5,-0.2612,0.5795,0.2930,0.7142,-1040,-781,927,-1971,195,359,157,-43,-52,36.5067,78.7671,-9.8726,1,1
0000980710,5,-0.2577,0.5795,0.2901,0.7167,-1041,-773,929,-2027,315,419,215,-86,-15,36.1902,78.5570,-9.6253,1,1
0000980731,5,-0.2500,0.5792,0.2863,0.7212,-1035,-740,960,-2271,147,247,401,-183,18,36.7348,78.1048,-8.0876,1,1
0000980752,5,-0.2398,0.5799,0.2804,0.7264,-1035,-740,960,-2131,143,355,445,-80,-2,37.2007,77.6597,-6.2269,1,1
0000980773,5,-0.2304,0.5822,0.2730,0.7303,-1035,-706,983,-1995,163,471,323,-25,-25,37.0333,77.4858,-4.9400,1,1
0000980794,5,-0.2243,0.5834,0.2678,0.7332,-1030,-677,1000,-1883,43,619,335,-67,-36,36.6605,77.3326,-4.3247,1,1
0000980815,5,-0.2171,0.5837,0.2617,0.7374,-1030,-677,1000,-2011,-95,675,381,-122,-54,36.1253,77.0024,-3.7218,1,1
0000980836,5,-0.2102,0.5834,0.2553,0.7418,-1017,-655,1029,-2067,-139,707,347,-110,-89,35.2107,76.6201,-3.4989,1,1
0000980857,5,-0.2051,0.5832,0.2490,0.7455,-1012,-631,1042,-2051,-75,547,292,-56,-91,34.0130,76.3475,-3.7206,1,1
0000980878,5,-0.1989,0.5840,0.2416,0.7490,-1012,-631,1042,-2019,23,423,295,-39,-67,32.7816,76.1518,-3.7903,1,1
0000980899,5,-0.1942,0.5847,0.2364,0.7513,-1007,-609,1050,-2099,-35,363,248,-27,-54,32.0805,76.0362,-3.6474,1,1
0000980920,5,-0.1913,0.5856,0.2325,0.7526,-1012,-598,1050,-2107,-135,343,141,16,-51,31.4146,76.0240,-3.7258,1,1
0000980941,5,-0.1912,0.5864,0.2306,0.7526,-1012,-598,1050,-2123,-119,367,-8,44,-37,30.8149,76.1272,-4.1586,1,1
0000980962,5,-0.1939,0.5868,0.2314,0.7513,-1017,-606,1029,-2139,-51,303,-167,73,-8,30.4722,76.2970,-4.7917,1,1
0000980983,5,-0.1994,0.5876,0.2347,0.7483,-1028,-619,1003,-2143,107,367,-211,106,17,30.4029,76.6412,-5.5971,1,1
0000981004,5,-0.2038,0.5890,0.2378,0.7449,-1028,-619,1003,-2099,215,551,-200,141,31,30.6200,77.0420,-6.0168,1,1
0000981025,5,-0.2078,0.5912,0.2402,0.7414,-1042,-632,978,-2043,235,671,-155,161,21,30.7616,77.5233,-6.4086,1,1
0000981046,5,-0.2109,0.5935,0.2412,0.7383,-1053,-632,955,-1999,183,759,-83,150,-10,30.5736,77.9930,-6.9303,1,1
0000981067,5,-0.2129,0.5958,0.2403,0.7361,-1053,-632,955,-1971,83,755,10,125,-49,29.8530,78.3979,-7.7344,1,1
0000981088,5,-0.2143,0.5984,0.2374,0.7345,-1059,-630,937,-1971,15,759,45,111,-75,28.3533,78.7962,-9.0897,1,1
0000981109,5,-0.2151,0.6005,0.2343,0.7336,-1068,-624,922,-2047,-27,655,67,117,-79,26.8164,79.0847,-10.4177,1,1
0000981130,5,-0.2152,0.6033,0.2309,0.7324,-1068,-624,922,-2119,-123,463,107,141,-50,25.3881,79.4442,-11.5449,1,1
0000981151,5,-0.2140,0.6068,0.2274,0.7309,-1078,-610,905,-2111,-215,387,140,156,-13,24.4045,79.8748,-12.1128,1,1
0000981172,5,-0.2122,0.6109,0.2244,0.7290,-1094,-595,886,-2087,-263,347,127,170,30,23.9504,80.3673,-12.1395,1,1
0000981193,5,-0.2098,0.6164,0.2218,0.7259,-1094,-595,886,-2083,-279,399,102,184,58,24.1023,81.0633,-11.5513,1,1
0000981214,5,-0.2083,0.6209,0.2207,0.7227,-1115,-574,859,-2027,-315,447,64,200,75,24.6883,81.6812,-10.7255,1,1
0000981235,5,-0.2076,0.6255,0.2208,0.7190,-1136,-560,827,-2027,-415,499,0,210,89,25.7252,82.3476,-9.6211,1,1
0000981256,5,-0.2080,0.6299,0.2220,0.7146,-1136,-560,827,-2203,-415,391,-61,229,103,27.1375,83.0443,-8.3403,1,1
0000981277,5,-0.2092,0.6352,0.2243,0.7088,-1162,-539,784,-2351,-447,335,-95,295,135,29.4777,83.9037,-6.2760,1,1
0000981298,5,-0.2111,0.6434,0.2277,0.6998,-1193,-524,725,-2371,-515,191,-123,366,158,34.4952,85.2336,-1.6934,1,1
0000981319,5,-0.2137,0.6506,0.2313,0.6910,-1193,-524,725,-2443,-363,-59,-189,414,178,41.8712,86.4263,5.1733,1,1
0000981340,5,-0.2168,0.6585,0.2364,0.6808,-1232,-510,656,-2447,-175,-235,-227,458,231,60.0566,87.6009,22.6661,1,1
0000981361,5,-0.2187,0.6673,0.2418,0.6697,-1274,-481,586,-2287,119,-355,-164,464,281,103.0360,88.1178,65.0278,1,1
0000981382,5,-0.2180,0.6756,0.2460,0.6599,-1274,-481,586,-2171,403,-295,-28,339,255,138.4495,87.3908,100.1322,1,1
0000981403,5,-0.2152,0.6833,0.2481,0.6521,-1305,-453,544,-1951,647,-351,67,208,149,152.5237,86.3254,114.2531,1,1
0000981424,5,-0.2121,0.6871,0.2468,0.6496,-1319,-437,529,-1683,843,-259,155,98,71,156.1364,85.8561,118.2374,1,0
0000981445,5,-0.2087,0.6896,0.2447,0.6489,-1319,-437,529,-1695,747,-115,152,51,56,157.1681,85.5965,119.7407,1,0
0000981466,5,-0.2063,0.6907,0.2425,0.6493,-1325,-430,524,-1823,131,135,116,-22,-35,157.3623,85.5359,120.3281,1,0
0000981487,5,-0.2070,0.6900,0.2403,0.6506,-1320,-438,519,-1935,-151,-143,5,-5,-114,158.3320,85.8220,121.4305,1,0
0000981508,5,-0.2110,0.6900,0.2377,0.6503,-1320,-438,519,-1979,-199,-263,-43,69,-135,164.6287,86.1244,127.6122,1,0
0000981529,5,-0.2151,0.6896,0.2364,0.6498,-1318,-452,505,-1863,-51,-255,-100,21,-131,170.4739,86.3477,133.2132,1,0
0000981550,5,-0.2197,0.6872,0.2370,0.6506,-1309,-468,502,-1863,63,-111,-165,-81,-131,173.6191,86.7164,135.9180,1,0
0000981571,5,-0.2248,0.6835,0.2388,0.6521,-1309,-468,502,-1819,103,-323,-203,-81,-121,175.0108,87.2118,136.7292,1,0
0000981592,5,-0.2301,0.6802,0.2415,0.6527,-1299,-488,498,-1651,-259,35,-174,-188,-105,177.1341,87.5906,138.1662,1,0
0000981613,5,-0.2311,0.6710,0.2442,0.6609,-1280,-493,544,-1939,-399,643,-5,-526,-56,147.0316,88.6600,107.7576,1,0
0000981634,5,-0.2274,0.6603,0.2468,0.6718,-1280,-493,544,-2095,-447,807,7,-574,-14,78.8398,88.1689,39.6481,1,0
0000981655,5,-0.2258,0.6509,0.2502,0.6802,-1256,-493,581,-2067,-359,727,-112,-433,-43,59.5606,86.9113,20.2044,1,0
0000981676,5,-0.2286,0.6416,0.2554,0.6862,-1256,-493,581,-2223,119,395,-306,-388,-70,50.9860,85.7795,10.9324,1,0
0000981697,5,-0.2323,0.6315,0.2623,0.6917,-1236,-510,594,-2739,503,-135,-214,-446,10,47.0043,84.5456,6.0182,1,0
0000981718,5,-0.2292,0.6228,0.2679,0.6984,-1221,-500,617,-2871,99,-1151,104,-251,85,47.7166,83.1135,6.4777,1,0
0000981739,5,-0.2211,0.6249,0.2671,0.6995,-1221,-500,617,-2515,231,-1583,322,-5,243,51.9177,82.8959,11.4448,1,0
0000981760,5,-0.2105,0.6257,0.2693,0.7012,-1228,-461,633,-2635,119,427,161,-274,271,57.8178,82.2434,18.0537,1,0
0000981781,5,-0.2051,0.6206,0.2731,0.7059,-1226,-441,666,-2063,-103,359,18,-281,79,58.3690,81.1580,18.7215,1,0
0000981802,5,-0.2026,0.6174,0.2759,0.7083,-1226,-441,666,-1807,107,231,-121,-161,123,58.7592,80.5310,19.0714,1,0
0000981823,5,-0.2019,0.6133,0.2836,0.7090,-1226,-434,676,-1835,19,651,-149,-147,158,60.6496,79.7861,20.3291,1,0
0000981844,5,-0.1999,0.6115,0.2879,0.7094,-1228,-427,686,-2067,491,391,4,-94,121,62.1840,79.3156,21.6510,1,0
0000981865,5,-0.1952,0.6112,0.2874,0.7111,-1228,-427,686,-2267,351,351,246,-92,53,62.7645,78.9635,22.6637,1,0
0000981886,5,-0.1870,0.6129,0.2823,0.7139,-1230,-407,703,-2151,-295,419,418,-53,22,62.8396,78.7298,23.8833,1,0
0000981907,5,-0.1798,0.6151,0.2774,0.7158,-1232,-386,717,-2091,-295,407,218,-16,52,63.0490,78.6258,25.1316,1,0
0000981928,5,-0.1757,0.6160,0.2772,0.7161,-1232,-386,717,-2111,-91,287,-3,-17,109,64.1951,78.4252,26.6419,1,0
0000981949,5,-0.1760,0.6155,0.2813,0.7149,-1237,-376,715,-2043,99,307,-169,-12,113,65.5928,78.2446,27.6507,1,0
0000981970,5,-0.1785,0.6140,0.2875,0.7131,-1242,-374,701,-2015,219,427,-273,-7,123,67.0481,78.0377,28.3518,1,0
0000981991,5,-0.1821,0.6131,0.2947,0.7100,-1242,-374,701,-2035,359,467,-284,62,151,69.1023,77.9314,29.4655,1,1
0000982012,5,-0.1843,0.6129,0.3016,0.7067,-1251,-370,685,-2043,379,479,-197,24,175,71.5779,77.8098,31.1535,1,1
0000982033,5,-0.1851,0.6128,0.3092,0.7033,-1262,-361,676,-2059,203,423,-168,33,173,74.4799,77.5277,33.3072,1,1
0000982054,5,-0.1864,0.6129,0.3150,0.7003,-1262,-361,676,-2075,299,227,-202,51,151,76.7020,77.3746,34.9041,1,1
0000982075,5,-0.1886,0.6127,0.3208,0.6972,-1272,-357,659,-2011,471,235,-218,48,126,78.6363,77.2586,36.1326,1,1
0000982096,5,-0.1908,0.6125,0.3260,0.6944,-1283,-353,642,-2043,539,363,-179,55,115,80.3831,77.1698,37.2284,1,1
0000982117,5,-0.1912,0.6141,0.3294,0.6913,-1283,-353,642,-2071,259,287,9,136,147,82.5509,77.1465,39.0647,1,1
0000982138,5,-0.1885,0.6191,0.3311,0.6868,-1298,-341,629,-2115,147,283,65,158,165,86.3010,77.1853,42.9099,1,1
0000982159,5,-0.1870,0.6226,0.3331,0.6830,-1312,-321,607,-2031,227,443,-35,128,157,89.2625,77.1657,45.8274,1,1
0000982180,5,-0.1872,0.6241,0.3371,0.6796,-1312,-321,607,-2067,355,399,-135,79,149,91.6146,77.0195,47.8025,1,1
0000982201,5,-0.1881,0.6247,0.3417,0.6764,-1322,-308,592,-2083,395,403,-144,68,135,93.5757,76.8376,49.2612,1,1
0000982222,5,-0.1886,0.6256,0.3455,0.6735,-1329,-297,578,-2003,267,323,-81,80,131,95.3754,76.6753,50.6729,1,1
0000982243,5,-0.1884,0.6274,0.3498,0.6698,-1329,-297,578,-2043,263,391,-80,72,146,97.8016,76.4484,52.7377,1,1
0000982264,5,-0.1885,0.6282,0.3538,0.6668,-1339,-284,567,-2043,279,327,-124,59,143,99.5865,76.2102,54.1465,1,1
0000982285,5,-0.1896,0.6279,0.3588,0.6642,-1345,-270,554,-2003,575,435,-199,12,125,100.8802,75.9405,54.8876,1,1
0000982306,5,-0.1914,0.6261,0.3647,0.6621,-1345,-270,554,-2007,595,379,-213,-11,117,101.6436,75.6188,54.9491,1,1
0000982327,5,-0.1920,0.6253,0.3690,0.6603,-1352,-264,549,-2003,463,327,-70,-2,97,102.3860,75.3413,55.2417,1,1
0000982348,5,-0.1914,0.6250,0.3715,0.6593,-1356,-259,545,-2027,439,319,-55,-18,77,102.8726,75.1033,55.5317,1,1
0000982369,5,-0.1917,0.6236,0.3748,0.6586,-1356,-259,545,-1967,595,267,-103,-36,53,103.0188,74.8450,55.3472,1,1
0000982390,5,-0.1921,0.6222,0.3776,0.6583,-1358,-255,544,-1975,667,259,-91,-45,52,102.9586,74.6395,54.9868,1,1
0000982411,5,-0.1919,0.6211,0.3799,0.6581,-1359,-247,544,-2023,667,235,-49,-38,50,102.9182,74.4319,54.7487,1,1
0000982432,5,-0.1914,0.6206,0.3810,0.6581,-1359,-247,544,-1939,463,191,-4,-17,27,102.9158,74.2930,54.6818,1,1
0000982453,5,-0.1907,0.6206,0.3811,0.6582,-1359,-247,550,-1931,523,227,27,-20,15,102.9059,74.2254,54.7299,1,1
0000982474,5,-0.1894,0.6201,0.3812,0.6590,-1359,-239,554,-2063,583,287,14,-49,13,102.5762,74.0869,54.4933,1,1
0000982495,5,-0.1885,0.6196,0.3812,0.6598,-1359,-239,554,-2047,427,307,27,-35,1,102.2304,73.9952,54.2240,1,1
0000982516,5,-0.1876,0.6196,0.3807,0.6603,-1355,-239,560,-2015,435,287,45,-16,5,102.0433,73.9534,54.1620,1,1
0000982537,5,-0.1862,0.6199,0.3800,0.6608,-1356,-236,564,-1991,399,319,66,-23,8,101.9516,73.8977,54.2557,1,1
0000982558,5,-0.1847,0.6200,0.3792,0.6616,-1356,-236,564,-2003,443,403,50,-43,1,101.6840,73.8284,54.1822,1,1
0000982579,5,-0.1834,0.6191,0.3790,0.6629,-1355,-236,570,-1995,483,463,25,-56,0,101.0757,73.7091,53.7063,1,1
0000982600,5,-0.1821,0.6189,0.3783,0.6639,-1351,-234,573,-2039,231,367,73,-28,-8,100.6804,73.6370,53.4863,1,1
0000982621,5,-0.1808,0.6195,0.3764,0.6647,-1351,-234,573,-2051,171,355,84,-10,-25,100.4289,73.6735,53.5142,1,1
0000982642,5,-0.1803,0.6191,0.3755,0.6657,-1350,-236,580,-2039,359,399,-13,-55,-23,99.9776,73.6816,53.1932,1,1
0000982663,5,-0.1805,0.6175,0.3760,0.6669,-1344,-239,584,-1979,539,459,-41,-78,-15,99.2549,73.6053,52.4075,1,1
0000982684,5,-0.1804,0.6152,0.3769,0.6685,-1344,-239,584,-2035,503,383,-17,-75,-10,98.3133,73.4489,51.3753,1,1
0000982705,5,-0.1800,0.6141,0.3769,0.6697,-1338,-240,594,-2095,419,327,11,-51,-19,97.6949,73.3623,50.7929,1,1
0000982726,5,-0.1798,0.6136,0.3763,0.6705,-1341,-244,597,-2019,419,295,21,-26,-27,97.2475,73.3625,50.4189,1,1
0000982747,5,-0.1794,0.6132,0.3756,0.6714,-1341,-244,597,-1983,419,411,28,-33,-18,96.8385,73.3622,50.1085,1,1
0000982768,5,-0.1788,0.6129,0.3749,0.6722,-1340,-241,600,-2027,355,363,32,-25,-14,96.4812,73.3402,49.8558,1,1
0000982789,5,-0.1783,0.6128,0.3739,0.6730,-1340,-246,602,-2039,347,363,27,-15,-21,96.1259,73.3528,49.6442,1,1
0000982810,5,-0.1782,0.6126,0.3734,0.6734,-1340,-246,602,-2039,407,371,5,-4,-13,95.9252,73.3763,49.4916,1,1
0000982831,5,-0.1782,0.6126,0.3733,0.6735,-1340,-245,599,-2015,387,363,7,-5,-3,95.8451,73.3856,49.4244,1,1
0000982852,5,-0.1780,0.6125,0.3731,0.6737,-1336,-248,604,-2015,415,419,-5,-12,0,95.7688,73.3687,49.3819,1,1
0000982873,5,-0.1782,0.6122,0.3734,0.6738,-1336,-248,604,-2035,379,379,-22,-3,-2,95.6869,73.3538,49.2554,1,1
0000982894,5,-0.1788,0.6120,0.3737,0.6737,-1336,-244,604,-2019,371,391,-12,5,-2,95.6968,73.3793,49.1933,1,1
0000982915,5,-0.1788,0.6120,0.3737,0.6736,-1334,-244,602,-2007,391,419,5,-2,2,95.7145,73.3783,49.2091,1,1
0000982936,5,-0.1786,0.6119,0.3737,0.6738,-1334,-244,602,-2055,395,419,-3,-14,-2,95.6360,73.3580,49.1410,1,1
0000982957,5,-0.1789,0.6113,0.3739,0.6742,-1336,-246,605,-2035,387,423,-24,-17,-16,95.4010,73.3452,48.8634,1,1
0000982978,5,-0.1794,0.6107,0.3740,0.6745,-1335,-249,605,-1991,379,443,-16,-13,-9,95.1616,73.3482,48.5675,1,1
0000982999,5,-0.1798,0.6101,0.3744,0.6747,-1335,-249,605,-2031,379,379,-24,-16,-1,94.9629,73.3282,48.2998,1,1
0000983020,5,-0.1802,0.6095,0.3750,0.6749,-1335,-252,606,-2043,415,355,-36,-20,-1,94.8033,73.2906,48.0519,1,1
0000983041,5,-0.1808,0.6087,0.3757,0.6750,-1334,-252,606,-2007,459,387,-43,-17,-4,94.6302,73.2617,47.7579,1,1
0000983062,5,-0.1813,0.6081,0.3762,0.6751,-1334,-252,606,-1983,475,387,-23,-8,0,94.5243,73.2397,47.5582,1,1
0000983083,5,-0.1814,0.6080,0.3765,0.6751,-1336,-250,605,-2027,459,383,0,-6,4,94.5290,73.2228,47.5320,1,1
0000983104,5,-0.1813,0.6079,0.3766,0.6751,-1333,-249,610,-2027,363,403,1,-1,0,94.4964,73.2027,47.5018,1,1
0000983125,5,-0.1813,0.6080,0.3764,0.6751,-1333,-249,610,-2015,319,395,4,7,-7,94.4946,73.2255,47.5121,1,1
0000983146,5,-0.1815,0.6081,0.3763,0.6751,-1333,-247,608,-2007,375,431,-4,3,-1,94.5036,73.2498,47.5189,1,1
0000983167,5,-0.1816,0.6080,0.3764,0.6751,-1334,-249,607,-2003,399,415,-4,-1,2,94.5121,73.2477,47.5082,1,1
0000983188,5,-0.1816,0.6080,0.3764,0.6751,-1334,-249,607,-2035,391,399,0,-2,0,94.5045,73.2420,47.4939,1,1
0000983209,5,-0.1816,0.6078,0.3764,0.6753,-1333,-250,606,-2043,379,403,-3,-9,-8,94.3798,73.2363,47.3741,1,1
0000983230,5,-0.1818,0.6075,0.3763,0.6755,-1334,-255,608,-2007,391,379,-7,-9,-11,94.2261,73.2428,47.2058,1,1
0000983251,5,-0.1820,0.6072,0.3764,0.6757,-1334,-255,608,-1999,415,407,-13,-8,-2,94.1053,73.2406,47.0575,1,1
0000983272,5,-0.1820,0.6070,0.3766,0.6757,-1333,-254,606,-2039,375,383,0,-2,4,94.0926,73.2233,47.0246,1,1
0000983293,5,-0.1820,0.6071,0.3765,0.6757,-1332,-254,606,-2043,375,371,-3,3,-1,94.1039,73.2219,47.0493,1,1
0000983314,5,-0.1824,0.6069,0.3767,0.6756,-1332,-254,606,-1995,423,395,-20,0,-3,94.0906,73.2394,46.9861,1,1
0000983335,5,-0.1826,0.6067,0.3769,0.6756,-1332,-257,604,-1991,399,455,-6,-5,2,94.0583,73.2317,46.9166,1,1
0000983356,5,-0.1825,0.6067,0.3771,0.6756,-1333,-255,608,-2031,371,415,-2,-2,4,94.0543,73.2137,46.9039,1,1
0000983377,5,-0.1824,0.6065,0.3771,0.6757,-1333,-255,608,-2031,391,411,0,-11,-2,94.0044,73.1950,46.8515,1,1
0000983398,5,-0.1826,0.6061,0.3772,0.6761,-1333,-257,610,-2023,407,423,-15,-18,-14,93.7882,73.1806,46.6201,1,1
0000983419,5,-0.1829,0.6054,0.3772,0.6765,-1334,-255,610,-1999,395,387,-6,-14,-11,93.5030,73.1759,46.2967,1,1
0000983440,5,-0.1828,0.6052,0.3771,0.6769,-1334,-255,610,-2027,367,403,9,-15,-5,93.3285,73.1576,46.1479,1,1
0000983461,5,-0.1827,0.6049,0.3771,0.6772,-1333,-262,610,-2019,363,423,-6,-14,-3,93.1858,73.1366,46.0128,1,1
0000983482,5,-0.1828,0.6045,0.3772,0.6774,-1332,-259,612,-2015,351,439,-13,-12,-4,93.0558,73.1176,45.8527,1,1
0000983503,5,-0.1831,0.6040,0.3775,0.6775,-1332,-259,612,-2023,347,423,-25,-17,-5,92.9150,73.1000,45.6582,1,1
0000983524,5,-0.1836,0.6032,0.3781,0.6779,-1327,-260,610,-2027,375,419,-27,-24,-3,92.6623,73.0579,45.3135,1,1
0000983545,5,-0.1839,0.6025,0.3785,0.6781,-1327,-263,616,-2019,375,435,-24,-18,-2,92.4849,73.0177,45.0641,1,1
0000983566,5,-0.1842,0.6021,0.3789,0.6783,-1327,-263,616,-2003,367,435,-20,-10,-3,92.3658,72.9968,44.8842,1,1
0000983587,5,-0.1846,0.6016,0.3792,0.6784,-1329,-263,614,-2027,363,419,-26,-13,-7,92.2343,72.9837,44.6860,1,1
0000983608,5,-0.1852,0.6010,0.3796,0.6786,-1327,-263,616,-2019,423,411,-29,-16,-9,92.0517,72.9729,44.4219,1,1
0000983629,5,-0.1857,0.6002,0.3801,0.6789,-1327,-263,616,-1999,427,451,-24,-17,-2,91.8295,72.9401,44.1045,1,1
0000983650,5,-0.1859,0.5997,0.3805,0.6789,-1327,-268,619,-2011,391,407,-16,-10,4,91.7594,72.9090,43.9749,1,1
0000983671,5,-0.1858,0.5995,0.3808,0.6790,-1328,-266,617,-2023,411,419,-5,-13,2,91.7026,72.8752,43.8985,1,1
0000983692,5,-0.1859,0.5992,0.3809,0.6792,-1328,-266,617,-2011,403,443,-7,-3,-4,91.6277,72.8595,43.8049,1,1
0000983713,5,-0.1860,0.5992,0.3808,0.6792,-1328,-268,616,-2003,343,467,4,0,-8,91.5710,72.8741,43.7487,1,1
0000983734,5,-0.1859,0.5991,0.3804,0.6796,-1328,-271,619,-2011,351,467,7,-16,-11,91.3926,72.8811,43.6123,1,1
0000983755,5,-0.1861,0.5985,0.3804,0.6800,-1328,-271,619,-2019,383,435,-16,-20,-10,91.1529,72.8585,43.3603,1,1
0000983776,5,-0.1863,0.5982,0.3806,0.6801,-1325,-270,620,-2015,415,419,-4,0,0,91.0617,72.8520,43.2319,1,1
0000983797,5,-0.1860,0.5987,0.3804,0.6799,-1324,-267,618,-2031,347,435,30,16,10,91.2080,72.8632,43.4267,1,1
0000983818,5,-0.1854,0.5993,0.3799,0.6798,-1324,-267,618,-2015,323,459,20,10,2,91.3575,72.8782,43.6732,1,1
0000983839,5,-0.1854,0.5995,0.3797,0.6797,-1325,-265,618,-1999,351,463,-8,5,-1,91.4182,72.9024,43.7465,1,1
0000983860,5,-0.1856,0.5996,0.3798,0.6796,-1327,-268,616,-1987,355,487,-3,7,0,91.4630,72.9177,43.7665,1,1
0000983881,5,-0.1857,0.5998,0.3798,0.6793,-1327,-268,616,-1995,319,463,0,15,3,91.5594,72.9398,43.8565,1,1
0000983902,5,-0.1859,0.6001,0.3799,0.6790,-1328,-267,615,-2043,371,399,-7,19,5,91.7232,72.9706,44.0003,1,1
0000983923,5,-0.1863,0.6004,0.3801,0.6785,-1331,-265,610,-2035,415,439,-14,22,9,91.9376,73.0035,44.1663,1,1
0000983944,5,-0.1865,0.6010,0.3802,0.6778,-1331,-265,610,-2011,351,475,6,31,10,92.2663,73.0497,44.4681,1,1
0000983965,5,-0.1864,0.6017,0.3800,0.6774,-1334,-269,608,-1991,319,511,11,22,6,92.5290,73.0923,44.7573,1,1
0000983986,5,-0.1865,0.6019,0.3800,0.6772,-1334,-265,606,-2027,363,459,-4,4,0,92.6137,73.1109,44.8398,1,1
0000984007,5,-0.1866,0.6019,0.3801,0.6771,-1334,-265,606,-2007,395,459,-2,6,2,92.6557,73.1178,44.8593,1,1
0000984028,5,-0.1864,0.6022,0.3799,0.6770,-1332,-262,604,-2011,379,407,31,11,4,92.7316,73.1253,44.9781,1,1
0000984049,5,-0.1858,0.6029,0.3793,0.6769,-1333,-260,605,-2023,363,395,22,15,1,92.8832,73.1566,45.2336,1,1
0000984070,5,-0.1858,0.6033,0.3790,0.6767,-1333,-260,605,-2035,363,359,6,20,-1,93.0169,73.1986,45.3963,1,1
0000984091,5,-0.1860,0.6038,0.3788,0.6763,-1336,-257,602,-1999,439,415,5,25,5,93.2117,73.2479,45.5979,1,1
0000984112,5,-0.1859,0.6044,0.3788,0.6758,-1336,-255,598,-2007,431,423,11,21,13,93.4675,73.2727,45.8662,1,1
0000984133,5,-0.1856,0.6049,0.3786,0.6755,-1336,-255,598,-2023,411,419,19,13,4,93.6893,73.2878,46.1350,1,1
0000984154,5,-0.1854,0.6053,0.3782,0.6755,-1338,-255,598,-2031,415,403,8,4,-10,93.7377,73.3180,46.2347,1,1
0000984175,5,-0.1855,0.6055,0.3777,0.6755,-1339,-254,596,-2007,407,395,17,11,-13,93.7044,73.3642,46.2401,1,1
0000984196,5,-0.1853,0.6059,0.3769,0.6756,-1339,-254,596,-2003,375,403,33,13,-15,93.6994,73.4255,46.3257,1,1
0000984217,5,-0.1851,0.6064,0.3761,0.6757,-1336,-256,592,-2011,391,363,28,12,-12,93.6943,73.4818,46.4181,1,1
0000984238,5,-0.1850,0.6068,0.3754,0.6758,-1338,-255,597,-2019,439,371,19,9,-10,93.6969,73.5320,46.4896,1,1
0000984259,5,-0.1848,0.6072,0.3746,0.6759,-1338,-255,597,-2023,439,375,30,3,-15,93.6615,73.5853,46.5489,1,1
0000984280,5,-0.1845,0.6074,0.3736,0.6764,-1338,-252,598,-1983,403,407,38,-10,-29,93.4435,73.6277,46.4526,1,1
0000984301,5,-0.1844,0.6071,0.3725,0.6773,-1333,-262,602,-2007,399,395,21,-24,-45,92.9890,73.6734,46.1046,1,1
0000984322,5,-0.1846,0.6065,0.3716,0.6783,-1333,-262,602,-2035,431,367,16,-31,-47,92.3937,73.7147,45.5821,1,1
0000984343,5,-0.1845,0.6060,0.3705,0.6793,-1332,-263,605,-2031,431,359,38,-30,-41,91.8243,73.7420,45.1165,1,1
0000984364,5,-0.1840,0.6054,0.3688,0.6809,-1329,-268,611,-1991,383,375,41,-42,-53,91.0409,73.7739,44.5266,1,1
0000984385,5,-0.1840,0.6044,0.3674,0.6826,-1329,-268,611,-1979,399,371,23,-64,-71,90.1121,73.7901,43.7280,1,1
0000984406,5,-0.1841,0.6029,0.3660,0.6846,-1322,-277,620,-1995,451,395,23,-74,-79,88.9580,73.7918,42.6891,1,1
0000984427,5,-0.1841,0.6015,0.3644,0.6866,-1315,-286,626,-2003,475,355,36,-68,-79,87.7924,73.7948,41.6635,1,1
0000984448,5,-0.1839,0.6005,0.3624,0.6886,-1315,-286,626,-2007,487,375,56,-58,-82,86.6918,73.8153,40.7589,1,1
0000984469,5,-0.1834,0.5994,0.3594,0.6914,-1308,-295,638,-2023,471,347,75,-69,-98,85.1972,73.8572,39.5833,1,1
0000984490,5,-0.1827,0.5982,0.3564,0.6941,-1301,-302,654,-2027,479,367,94,-87,-109,83.7467,73.8700,38.4566,1,1
0000984511,5,-0.1817,0.5969,0.3531,0.6972,-1301,-302,654,-1991,475,403,106,-99,-116,82.1302,73.8517,37.2204,1,1
0000984532,5,-0.1805,0.5955,0.3495,0.7005,-1289,-312,670,-2043,415,431,123,-104,-124,80.4008,73.8200,35.9133,1,1
0000984553,5,-0.1792,0.5944,0.3455,0.7037,-1279,-324,690,-2031,363,375,137,-80,-131,78.6786,73.8179,34.6675,1,1
0000984574,5,-0.1775,0.5938,0.3398,0.7074,-1279,-324,690,-2015,347,399,156,-59,-131,76.7066,73.8967,33.3394,1,1
0000984595,5,-0.1760,0.5937,0.3351,0.7101,-1272,-332,704,-2027,383,363,166,-45,-122,75.2205,73.9721,32.4085,1,1
0000984616,5,-0.1742,0.5942,0.3303,0.7124,-1262,-338,714,-2027,375,355,182,-16,-111,73.9936,74.0882,31.7675,1,1
0000984637,5,-0.1719,0.5956,0.3251,0.7142,-1262,-338,714,-2007,323,411,225,11,-99,73.0075,74.2558,31.4483,1,1
0000984658,5,-0.1689,0.5978,0.3192,0.7157,-1256,-339,728,-2011,327,447,262,30,-87,72.2719,74.4694,31.5047,1,1
0000984679,5,-0.1655,0.6002,0.3133,0.7171,-1249,-334,737,-2007,363,527,262,34,-80,71.6447,74.6878,31.6996,1,1
0000984700,5,-0.1608,0.6038,0.3056,0.7185,-1249,-334,737,-1947,335,647,297,52,-77,71.0378,74.9870,32.1776,1,1
0000984721,5,-0.1561,0.6074,0.2984,0.7195,-1244,-326,747,-2035,215,507,367,78,-81,70.6663,75.2858,32.8526,1,1
0000984742,5,-0.1504,0.6120,0.2899,0.7203,-1242,-310,759,-2095,167,467,419,92,-79,70.4533,75.6516,33.8748,1,1
0000984763,5,-0.1446,0.6163,0.2815,0.7212,-1242,-310,759,-2035,171,535,373,62,-74,70.2179,75.9923,34.8803,1,1
0000984784,5,-0.1396,0.6192,0.2742,0.7224,-1241,-300,769,-2087,143,727,309,15,-82,69.6705,76.2215,35.3863,1,1
0000984805,5,-0.1358,0.6207,0.2668,0.7247,-1235,-301,781,-2055,51,755,206,-25,-115,68.2295,76.4157,34.9106,1,1
0000984826,5,-0.1343,0.6202,0.2619,0.7271,-1235,-301,781,-2083,-39,787,137,-74,-127,66.4417,76.4851,33.6669,1,1
0000984847,5,-0.1343,0.6184,0.2584,0.7299,-1226,-309,797,-2067,-7,731,37,-113,-133,64.2923,76.4422,31.8122,1,1
0000984868,5,-0.1363,0.6150,0.2566,0.7330,-1212,-326,807,-2067,95,683,-78,-144,-156,61.8033,76.3164,29.3076,1,1
0000984889,5,-0.1399,0.6108,0.2555,0.7362,-1212,-326,807,-2023,167,611,-115,-150,-173,59.0300,76.1490,26.3080,1,1
0000984910,5,-0.1453,0.6054,0.2541,0.7401,-1193,-351,817,-1999,279,631,-117,-138,-188,55.4399,75.9369,22.3741,1,1
0000984931,5,-0.1496,0.6015,0.2524,0.7430,-1182,-374,823,-1995,339,607,-88,-109,-194,52.6559,75.7913,19.3626,1,1
0000984952,5,-0.1535,0.5987,0.2500,0.7454,-1182,-374,823,-1947,291,571,-53,-68,-191,50.0624,75.7321,16.6431,1,1
0000984973,5,-0.1563,0.5968,0.2468,0.7473,-1172,-392,828,-2027,87,511,29,-36,-176,47.7081,75.7274,14.3229,1,1
0000984994,5,-0.1581,0.5958,0.2430,0.7490,-1163,-404,825,-2011,-59,563,27,-7,-151,45.6002,75.7688,12.3869,1,1
0000985015,5,-0.1605,0.5953,0.2394,0.7500,-1163,-404,825,-2011,-135,563,-2,19,-118,43.5562,75.8912,10.4510,1,1
0000985036,5,-0.1628,0.5955,0.2376,0.7500,-1163,-414,817,-2055,-147,515,-35,47,-85,42.3983,76.0578,9.2512,1,1
0000985057,5,-0.1650,0.5960,0.2367,0.7493,-1165,-420,805,-2023,-135,583,-39,59,-49,41.7145,76.2529,8.4661,1,1
0000985078,5,-0.1668,0.5971,0.2364,0.7482,-1165,-420,805,-2035,-55,627,-54,95,-25,41.3973,76.4926,8.0276,1,1
0000985099,5,-0.1693,0.5986,0.2364,0.7464,-1176,-423,789,-2043,-43,583,-82,116,-29,41.2233,76.8223,7.6483,1,1
0000985120,5,-0.1737,0.6007,0.2370,0.7435,-1180,-429,765,-2063,-55,527,-122,133,-38,40.9127,77.3218,6.9338,1,1
0000985141,5,-0.1778,0.6024,0.2377,0.7409,-1180,-429,765,-2071,-51,431,-134,140,-40,40.5518,77.7519,6.1788,1,1
0000985162,5,-0.1819,0.6042,0.2385,0.7382,-1188,-435,743,-2103,19,263,-132,141,-28,40.2698,78.1939,5.4943,1,1
0000985183,5,-0.1854,0.6065,0.2393,0.7352,-1200,-435,715,-2103,23,279,-88,185,7,40.3010,78.6758,5.1735,1,1
0000985204,5,-0.1876,0.6101,0.2398,0.7315,-1200,-435,715,-2147,-35,311,-49,205,33,40.9232,79.2728,5.5759,1,1
0000985225,5,-0.1887,0.6151,0.2403,0.7269,-1215,-430,689,-2187,-163,235,-6,199,65,42.5231,80.0099,7.0640,1,1
0000985246,5,-0.1887,0.6195,0.2407,0.7230,-1231,-417,665,-2211,-231,287,6,214,85,44.4369,80.6085,8.9644,1,1
0000985267,5,-0.1888,0.6242,0.2415,0.7186,-1231,-417,665,-2263,-199,347,-24,228,97,46.9215,81.2262,11.3879,1,1
0000985288,5,-0.1894,0.6290,0.2431,0.7137,-1251,-402,630,-2215,-67,243,-53,244,123,50.2241,81.8617,14.5151,1,1
0000985309,5,-0.1896,0.6339,0.2452,0.7086,-1268,-390,600,-2211,31,127,-22,235,147,54.6095,82.4546,18.7197,1,1
0000985330,5,-0.1877,0.6404,0.2468,0.7027,-1268,-390,600,-2175,155,-43,77,224,149,61.4072,83.0458,25.5530,1,1
0000985351,5,-0.1842,0.6464,0.2459,0.6984,-1288,-368,577,-1991,319,59,162,237,148,67.6998,83.4562,32.2289,1,1
0000985372,5,-0.1805,0.6522,0.2451,0.6943,-1304,-344,557,-2019,339,139,112,203,137,74.4715,83.7467,39.3882,1,1
0000985393,5,-0.1786,0.6561,0.2455,0.6909,-1304,-344,557,-1983,335,23,26,142,95,79.9727,83.8846,45.0177,1,1
0000985414,5,-0.1778,0.6594,0.2463,0.6877,-1315,-334,540,-1883,435,-71,-17,191,99,84.9703,83.9941,50.0162,1,1
0000985435,5,-0.1793,0.6642,0.2491,0.6817,-1328,-326,510,-1791,251,111,-165,222,85,93.5630,84.1632,58.2508,1,1
0000985456,5,-0.1848,0.6649,0.2537,0.6778,-1328,-326,510,-1659,-75,467,-315,62,-23,97.4926,84.3183,61.3177,1,1
0000985477,5,-0.1903,0.6621,0.2573,0.6776,-1327,-340,502,-1767,-131,371,-196,-70,-66,95.4527,84.4259,58.5024,1,1
0000985498,5,-0.1919,0.6595,0.2584,0.6793,-1327,-340,502,-1843,-99,471,-22,-123,-37,91.9620,84.3776,54.7787,1,1
0000985519,5,-0.1908,0.6558,0.2583,0.6832,-1321,-344,512,-1867,-307,783,29,-284,-51,86.4296,84.0894,49.3464,1,1
0000985540,5,-0.1895,0.6480,0.2587,0.6909,-1308,-348,540,-2059,-131,623,-27,-359,-88,76.7060,83.4003,39.6926,1,1
0000985561,5,-0.1897,0.6395,0.2598,0.6983,-1308,-348,540,-2083,63,687,-79,-434,-111,68.5914,82.5746,31.4467,1,1
0000985582,5,-0.1896,0.6286,0.2616,0.7074,-1288,-363,577,-2715,15,343,-75,-563,-126,61.1021,81.3462,23.7737,1,1
0000985603,5,-0.1891,0.6192,0.2615,0.7159,-1266,-371,614,-3311,163,-1423,46,-318,-132,55.4546,80.1964,18.1619,1,1
0000985624,5,-0.1856,0.6193,0.2589,0.7176,-1266,-371,614,-2587,411,-931,212,-13,108,55.1180,80.0537,18.3353,1,1
0000985645,5,-0.1801,0.6153,0.2600,0.7220,-1265,-352,625,-1943,87,295,-64,-403,6,55.0390,79.1852,18.6083,1,1
0000985666,5,-0.1815,0.6062,0.2640,0.7279,-1249,-364,663,-1771,319,195,-196,-338,-47,52.6191,78.0647,15.6914,1,1
0000985687,5,-0.1838,0.6013,0.2671,0.7303,-1249,-364,663,-1991,403,123,-147,-112,-11,51.5593,77.5342,14.1530,1,1
0000985708,5,-0.1852,0.5999,0.2694,0.7302,-1244,-370,666,-2179,-27,295,-82,-2,43,51.7386,77.3990,13.9986,1,1
0000985729,5,-0.1845,0.6008,0.2714,0.7289,-1250,-367,665,-2051,467,595,22,45,126,53.0974,77.4333,15.2528,1,1
0000985750,5,-0.1818,0.6029,0.2735,0.7271,-1250,-367,665,-2027,519,427,29,39,103,55.3238,77.4647,17.5236,1,1
0000985771,5,-0.1792,0.6042,0.2734,0.7267,-1256,-353,664,-2071,-19,615,125,-2,41,56.3298,77.4501,18.7588,1,1
0000985792,5,-0.1759,0.6046,0.2713,0.7279,-1258,-342,669,-2047,-223,703,144,-44,0,56.2822,77.3427,19.1765,1,1
0000985813,5,-0.1744,0.6040,0.2706,0.7291,-1258,-342,669,-2055,-131,663,0,-65,0,56.0148,77.1791,19.0990,1,1
0000985834,5,-0.1759,0.6013,0.2722,0.7303,-1253,-345,672,-2027,-143,683,-184,-128,-39,55.3668,76.9258,18.1699,1,1
0000985855,5,-0.1817,0.5949,0.2768,0.7324,-1245,-362,682,-2051,-39,499,-316,-180,-72,53.7123,76.4187,15.5999,1,1
0000985876,5,-0.1888,0.5879,0.2817,0.7344,-1245,-362,682,-1999,39,439,-381,-201,-101,51.9615,75.9101,12.7872,1,1
0000985897,5,-0.1966,0.5803,0.2864,0.7366,-1233,-393,682,-2003,119,487,-380,-214,-131,49.9923,75.3556,9.7094,1,1
0000985918,5,-0.2038,0.5728,0.2899,0.7391,-1216,-425,692,-2003,275,451,-300,-203,-144,47.9938,74.7783,6.7459,1,1
0000985939,5,-0.2095,0.5674,0.2913,0.7412,-1216,-425,692,-1915,391,471,-199,-54,-148,46.1621,74.3864,4.2801,1,1
0000985960,5,-0.2175,0.5650,0.2915,0.7406,-1209,-451,687,-1975,323,635,-208,95,-135,44.1530,74.5047,1.5557,1,1
0000985981,5,-0.2226,0.5653,0.2905,0.7393,-1209,-473,670,-2251,123,947,-59,70,-109,42.7935,74.8172,-0.1445,1,1
0000986002,5,-0.2219,0.5652,0.2879,0.7406,-1209,-473,670,-2323,91,243,163,-48,-48,41.9650,74.7672,-0.6916,1,1
0000986023,5,-0.2178,0.5658,0.2845,0.7426,-1207,-469,681,-2075,175,175,196,-30,-16,41.6898,74.6453,-0.3166,1,1
0000986044,5,-0.2164,0.5662,0.2830,0.7433,-1206,-470,683,-2039,-7,459,5,0,-21,41.4911,74.6175,-0.2586,1,1
0000986065,5,-0.2188,0.5660,0.2836,0.7425,-1206,-470,683,-2035,-111,583,-84,34,-18,41.1685,74.7191,-0.8394,1,1
0000986086,5,-0.2202,0.5659,0.2843,0.7419,-1207,-478,678,-2095,-127,555,-44,6,6,41.1132,74.7706,-1.0761,1,1
0000986107,5,-0.2206,0.5657,0.2852,0.7416,-1208,-475,677,-1991,-27,603,-36,-1,20,41.2978,74.7719,-1.0072,1,1
0000986128,5,-0.2213,0.5652,0.2863,0.7414,-1208,-475,677,-1983,-35,639,-55,-16,11,41.4846,74.7403,-0.9761,1,1
0000986149,5,-0.2222,0.5645,0.2873,0.7413,-1207,-475,677,-1999,-71,675,-50,-9,0,41.5190,74.6921,-1.1093,1,1
0000986170,5,-0.2232,0.5643,0.2879,0.7409,-1205,-479,672,-1979,-39,663,-32,15,-1,41.5042,74.7144,-1.2719,1,1
0000986191,5,-0.2242,0.5644,0.2881,0.7404,-1205,-479,672,-1995,3,643,-36,24,-13,41.4031,74.7801,-1.4740,1,1
0000986212,5,-0.2255,0.5643,0.2881,0.7401,-1207,-478,671,-2023,11,571,-36,13,-34,41.0875,74.8362,-1.8948,1,1
0000986233,5,-0.2266,0.5640,0.2876,0.7402,-1205,-481,666,-2043,-11,439,-13,1,-45,40.6017,74.8462,-2.4333,1,1
0000986254,5,-0.2273,0.5637,0.2867,0.7405,-1205,-481,666,-2067,-23,431,5,0,-45,40.0532,74.8389,-2.9670,1,1
0000986275,5,-0.2280,0.5637,0.2855,0.7408,-1204,-491,669,-2087,-47,467,10,19,-34,39.4548,74.8659,-3.5155,1,1
0000986296,5,-0.2283,0.5643,0.2845,0.7406,-1203,-494,662,-2059,-59,515,20,37,-19,39.1368,74.9614,-3.7708,1,1
0000986317,5,-0.2286,0.5651,0.2838,0.7402,-1203,-494,662,-2051,-71,555,1,44,-14,38.9145,75.0845,-3.9487,1,1
0000986338,5,-0.2295,0.5659,0.2834,0.7394,-1205,-499,658,-2059,-47,535,-23,53,-13,38.7029,75.2314,-4.2038,1,1
0000986359,5,-0.2305,0.5667,0.2832,0.7386,-1206,-499,654,-2031,-71,563,-21,53,-11,38.5135,75.3976,-4.4538,1,1
0000986380,5,-0.2318,0.5677,0.2829,0.7376,-1206,-499,654,-2027,-59,555,-18,47,-13,38.2622,75.5866,-4.7782,1,1
0000986401,5,-0.2324,0.5684,0.2825,0.7370,-1207,-501,650,-2039,-35,551,3,37,-10,38.0709,75.7089,-4.9822,1,1
0000986422,5,-0.2325,0.5690,0.2819,0.7367,-1207,-497,644,-2055,-35,555,19,29,-10,37.9131,75.8034,-5.0898,1,1
0000986443,5,-0.2323,0.5697,0.2811,0.7365,-1207,-497,644,-2063,-55,531,32,25,-10,37.7518,75.8809,-5.1627,1,1
0000986464,5,-0.2319,0.5704,0.2802,0.7365,-1212,-499,645,-2051,-55,491,39,23,-8,37.6065,75.9523,-5.1880,1,1
0000986485,5,-0.2314,0.5712,0.2792,0.7364,-1213,-496,638,-2051,-83,499,28,19,-6,37.4595,76.0302,-5.1960,1,1
0000986506,5,-0.2313,0.5716,0.2788,0.7363,-1213,-496,638,-2059,-91,483,7,13,-2,37.3902,76.0755,-5.2193,1,1
0000986527,5,-0.2313,0.5719,0.2786,0.7361,-1210,-497,642,-2063,-99,463,4,19,2,37.3725,76.1273,-5.2211,1,1
0000986548,5,-0.2314,0.5724,0.2786,0.7357,-1212,-497,636,-2055,-87,475,-5,23,6,37.4109,76.1964,-5.1897,1,1
0000986569,5,-0.2316,0.5728,0.2787,0.7352,-1212,-497,636,-2047,-71,495,-3,19,7,37.4774,76.2656,-5.1436,1,1
0000986590,5,-0.2317,0.5733,0.2787,0.7348,-1214,-498,637,-2035,-79,523,1,16,4,37.5456,76.3367,-5.0789,1,1
0000986611,5,-0.2318,0.5736,0.2786,0.7346,-1214,-494,635,-2035,-79,539,-3,12,-1,37.5362,76.3794,-5.0940,1,1
0000986632,5,-0.2320,0.5737,0.2786,0.7344,-1214,-494,635,-2051,-59,535,-3,11,-3,37.4755,76.4114,-5.1672,1,1
0000986653,5,-0.2321,0.5740,0.2783,0.7343,-1216,-494,638,-2059,-55,491,9,13,-5,37.3974,76.4501,-5.2298,1,1
0000986674,5,-0.2319,0.5743,0.2779,0.7343,-1216,-494,633,-2063,-59,467,23,9,-5,37.3145,76.4870,-5.2540,1,1
0000986695,5,-0.2315,0.5746,0.2772,0.7344,-1216,-494,633,-2063,-67,479,23,0,-5,37.2209,76.5012,-5.2539,1,1
0000986716,5,-0.2313,0.5746,0.2770,0.7345,-1218,-496,638,-2071,-59,483,2,-2,-1,37.1782,76.4916,-5.2620,1,1
0000986737,5,-0.2314,0.5747,0.2771,0.7345,-1219,-496,634,-2083,-27,435,-4,5,1,37.1802,76.5004,-5.2729,1,1
0000986758,5,-0.2313,0.5749,0.2770,0.7343,-1219,-496,634,-2067,-43,427,7,8,4,37.2174,76.5276,-5.2261,1,1
0000986779,5,-0.2312,0.5750,0.2770,0.7343,-1218,-494,634,-2075,-51,479,3,0,3,37.2683,76.5383,-5.1563,1,1
0000986800,5,-0.2312,0.5750,0.2771,0.7342,-1218,-493,630,-2067,-55,459,-2,3,5,37.3305,76.5430,-5.1066,1,1
0000986821,5,-0.2310,0.5752,0.2772,0.7341,-1218,-493,630,-2055,-71,447,4,7,8,37.4152,76.5651,-5.0144,1,1
0000986842,5,-0.2310,0.5754,0.2773,0.7340,-1216,-490,630,-2047,-83,467,-4,2,7,37.5057,76.5832,-4.9273,1,1
0000986863,5,-0.2310,0.5753,0.2776,0.7339,-1215,-491,633,-2059,-83,467,-6,-4,5,37.5837,76.5773,-4.8737,1,1
0000986884,5,-0.2310,0.5752,0.2778,0.7339,-1215,-491,633,-2047,-71,487,-7,-2,4,37.6525,76.5688,-4.8246,1,1
0000986905,5,-0.2313,0.5751,0.2781,0.7338,-1216,-490,630,-2059,-71,475,-12,0,2,37.7037,76.5679,-4.8200,1,1
0000986926,5,-0.2313,0.5751,0.2782,0.7338,-1214,-492,634,-2047,-71,467,3,-3,2,37.7319,76.5628,-4.8023,1,1
0000986947,5,-0.2312,0.5750,0.2782,0.7338,-1214,-492,634,-2039,-79,479,-4,-5,0,37.7430,76.5485,-4.7904,1,1
0000986968,5,-0.2314,0.5747,0.2784,0.7340,-1219,-493,634,-2059,-79,515,-9,-13,-1,37.7321,76.5154,-4.8308,1,1
0000986989,5,-0.2314,0.5744,0.2785,0.7341,-1217,-493,633,-2055,-59,515,-4,-12,-2,37.7217,76.4718,-4.8572,1,1
0000987010,5,-0.2315,0.5741,0.2786,0.7343,-1217,-493,633,-2063,-35,479,-8,-6,-3,37.6908,76.4405,-4.9089,1,1
0000987031,5,-0.2316,0.5740,0.2786,0.7344,-1219,-497,635,-2067,-51,455,6,-3,-1,37.6531,76.4206,-4.9533,1,1
0000987052,5,-0.2313,0.5739,0.2785,0.7345,-1217,-494,634,-2063,-63,475,9,-6,0,37.6462,76.4042,-4.9272,1,1
0000987073,5,-0.2312,0.5738,0.2785,0.7347,-1217,-494,634,-2055,-59,483,0,-5,2,37.6649,76.3833,-4.9017,1,1
0000987094,5,-0.2311,0.5737,0.2786,0.7347,-1216,-494,635,-2083,-67,487,5,-4,4,37.7188,76.3693,-4.8470,1,1
0000987115,5,-0.2308,0.5737,0.2786,0.7348,-1214,-491,640,-2067,-71,483,10,-3,6,37.7898,76.3574,-4.7540,1,1
0000987136,5,-0.2304,0.5738,0.2787,0.7348,-1214,-491,640,-2075,-55,475,6,-4,10,37.9282,76.3458,-4.5875,1,1
0000987157,5,-0.2300,0.5739,0.2789,0.7348,-1212,-487,636,-2067,-43,475,8,-5,18,38.1314,76.3349,-4.3688,1,1
0000987178,5,-0.2294,0.5740,0.2792,0.7348,-1213,-494,641,-2059,-55,499,10,-1,24,38.4230,76.3294,-4.0514,1,1
0000987199,5,-0.2290,0.5742,0.2796,0.7347,-1213,-494,641,-2031,-59,531,-1,-3,23,38.7351,76.3295,-3.7347,1,1
0000987220,5,-0.2287,0.5742,0.2801,0.7345,-1216,-486,641,-2055,-63,519,-6,-4,21,39.0305,76.3222,-3.4605,1,1
0000987241,5,-0.2284,0.5742,0.2808,0.7344,-1216,-487,642,-2055,-59,479,-2,-1,21,39.3728,76.3123,-3.1469,1,1
0000987262,5,-0.2280,0.5743,0.2812,0.7342,-1216,-487,642,-2043,-47,499,1,0,20,39.6458,76.3172,-2.8808,1,1
0000987283,5,-0.2277,0.5745,0.2814,0.7341,-1216,-487,643,-2039,-27,511,8,-1,13,39.8576,76.3182,-2.6614,1,1
0000987304,5,-0.2271,0.5746,0.2813,0.7343,-1218,-483,646,-2043,-27,495,34,-7,5,39.9879,76.3030,-2.4658,1,1
0000987325,5,-0.2264,0.5747,0.2809,0.7345,-1218,-483,646,-2035,-43,487,20,-5,-1,40.0312,76.2809,-2.3278,1,1
0000987346,5,-0.2260,0.5746,0.2806,0.7348,-1214,-481,649,-2075,-15,455,11,-8,-6,39.9670,76.2546,-2.3391,1,1
0000987367,5,-0.2258,0.5745,0.2802,0.7351,-1212,-481,651,-2087,-27,439,23,-10,-11,39.8446,76.2251,-2.4007,1,1
0000987388,5,-0.2254,0.5744,0.2797,0.7356,-1212,-481,651,-2067,-23,399,21,-13,-11,39.6989,76.1868,-2.4684,1,1
0000987409,5,-0.2251,0.5741,0.2793,0.7360,-1212,-482,652,-2071,-59,399,13,-22,-1,39.5932,76.1331,-2.5215,1,1
0000987430,5,-0.2246,0.5738,0.2794,0.7364,-1208,-483,655,-2087,-87,411,12,-26,14,39.6532,76.0577,-2.4229,1,1
0000987451,5,-0.2238,0.5734,0.2800,0.7367,-1208,-483,655,-2075,-103,471,-5,-18,31,40.0296,75.9782,-2.0378,1,1
0000987472,5,-0.2237,0.5731,0.2813,0.7364,-1209,-485,658,-2063,-63,471,-47,-12,42,40.5150,75.9371,-1.6648,1,1
0000987493,5,-0.2241,0.5728,0.2832,0.7359,-1210,-481,659,-2055,-47,455,-60,-8,51,41.1190,75.9111,-1.2536,1,1
0000987514,5,-0.2244,0.5725,0.2853,0.7352,-1210,-481,659,-2055,0,455,-73,-8,55,41.8020,75.8895,-0.7902,1,1
0000987535,5,-0.2250,0.5720,0.2876,0.7345,-1207,-481,659,-2075,51,459,-78,-14,52,42.4809,75.8592,-0.3659,1,1
0000987556,5,-0.2256,0.5714,0.2902,0.7338,-1212,-480,662,-2071,75,463,-54,-18,50,43.2743,75.7974,0.1467,1,1
0000987577,5,-0.2254,0.5710,0.2920,0.7334,-1212,-480,662,-2071,87,431,-37,-18,51,43.9104,75.7444,0.6387,1,1
0000987598,5,-0.2253,0.5707,0.2937,0.7330,-1212,-479,662,-2083,59,407,-41,-14,56,44.5722,75.6887,1.1587,1,1
0000987619,5,-0.2251,0.5706,0.2956,0.7324,-1214,-473,665,-2095,27,407,-41,-2,68,45.3421,75.6638,1.7758,1,1
0000987640,5,-0.2248,0.5707,0.2977,0.7315,-1214,-473,665,-2071,39,383,-52,0,78,46.2321,75.6523,2.5032,1,1
0000987661,5,-0.2248,0.5706,0.3008,0.7304,-1214,-473,663,-2011,27,503,-68,-14,77,47.4537,75.6250,3.4561,1,1
0000987682,5,-0.2246,0.5697,0.3035,0.7300,-1214,-472,668,-2031,67,483,-52,-57,72,48.3147,75.4807,4.0891,1,1
0000987703,5,-0.2229,0.5689,0.3053,0.7304,-1214,-472,668,-2011,71,523,38,-62,73,49.1403,75.2653,4.9003,1,1
0000987724,5,-0.2201,0.5687,0.3059,0.7312,-1209,-464,678,-1939,115,567,76,-61,62,49.8561,75.0660,5.7983,1,1
0000987745,5,-0.2168,0.5686,0.3062,0.7321,-1207,-454,692,-1943,139,659,115,-54,75,50.5542,74.8521,6.7471,1,1
0000987766,5,-0.2114,0.5697,0.3058,0.7330,-1207,-454,692,-1979,199,643,165,-12,87,51.6704,74.6752,8.3610,1,1
0000987787,5,-0.2065,0.5720,0.3045,0.7331,-1205,-438,707,-1955,107,651,207,24,83,52.6884,74.6722,9.9310,1,1
0000987808,5,-0.2012,0.5748,0.3023,0.7333,-1211,-416,715,-1963,71,587,233,32,66,53.5795,74.7230,11.4717,1,1
0000987829,5,-0.1956,0.5778,0.2995,0.7336,-1211,-416,715,-2003,71,655,268,31,63,54.3692,74.7776,13.0110,1,1
0000987850,5,-0.1894,0.5806,0.2963,0.7343,-1212,-398,728,-1991,-11,851,252,-3,52,55.0966,74.7769,14.5485,1,1
0000987871,5,-0.1833,0.5825,0.2931,0.7356,-1210,-384,739,-2039,-163,931,182,-24,14,55.5127,74.6865,15.7703,1,1
0000987892,5,-0.1802,0.5825,0.2908,0.7373,-1210,-384,739,-2051,-363,1063,124,-73,-26,55.2027,74.5358,15.9241,1,1
0000987913,5,-0.1792,0.5806,0.2896,0.7395,-1205,-380,750,-2011,-223,927,0,-116,-58,54.3376,74.2749,15.2414,1,1
0000987934,5,-0.1810,0.5766,0.2900,0.7421,-1193,-398,759,-2003,-63,835,-125,-164,-92,53.0216,73.8886,13.7083,1,1
0000987955,5,-0.1844,0.5713,0.2911,0.7449,-1193,-398,759,-1935,151,655,-170,-191,-120,51.4432,73.4302,11.7107,1,1
0000987976,5,-0.1887,0.5640,0.2921,0.7490,-1177,-419,771,-1971,207,623,-131,-204,-136,49.3286,72.7635,9.0986,1,1
0000987997,5,-0.1915,0.5584,0.2915,0.7526,-1160,-439,782,-1963,239,583,-88,-196,-169,47.4798,72.2286,7.0271,1,1
0000988018,5,-0.1942,0.5531,0.2899,0.7565,-1160,-439,782,-2003,243,543,-66,-187,-192,45.4721,71.7087,4.8946,1,1
0000988039,5,-0.1970,0.5482,0.2879,0.7601,-1140,-462,797,-2055,239,495,-72,-160,-190,43.5346,71.2305,2.8616,1,1
0000988060,5,-0.2006,0.5436,0.2863,0.7631,-1127,-486,803,-2039,179,475,-133,-117,-179,41.7632,70.8179,0.8935,1,1
0000988081,5,-0.2078,0.5385,0.2859,0.7649,-1127,-486,803,-2047,259,279,-268,-45,-170,39.7633,70.4961,-1.7292,1,1
0000988102,5,-0.2179,0.5358,0.2877,0.7633,-1119,-520,785,-2115,431,95,-423,109,-148,38.3196,70.6250,-4.2153,1,1
0000988123,5,-0.2301,0.5358,0.2901,0.7588,-1117,-559,747,-2107,475,347,-415,241,-112,36.9558,71.2038,-6.8297,1,1
0000988144,5,-0.2392,0.5379,0.2911,0.7541,-1117,-559,747,-2079,643,523,-219,233,-75,35.8295,71.9094,-8.8032,1,0
0000988165,5,-0.2436,0.5406,0.2907,0.7509,-1123,-578,721,-2195,727,155,-58,146,2,35.0928,72.4666,-9.8544,1,0
0000988186,5,-0.2452,0.5442,0.2915,0.7475,-1122,-576,716,-2167,583,-159,-37,136,60,35.3755,73.0405,-9.7462,1,0
0000988207,5,-0.2466,0.5475,0.2931,0.7440,-1122,-576,716,-2087,467,-111,-100,184,104,35.9970,73.5800,-9.3703,1,0
0000988228,5,-0.2493,0.5519,0.2964,0.7386,-1127,-574,701,-1983,303,43,-157,236,129,37.0947,74.3484,-8.7486,1,0
0000988249,5,-0.2530,0.5570,0.2996,0.7321,-1131,-574,678,-2207,119,179,-175,301,118,38.1220,75.2736,-8.2875,1,0
0000988270,5,-0.2574,0.5630,0.3018,0.7250,-1131,-574,678,-2839,-115,-127,-131,414,94,38.8194,76.3582,-8.1185,1,0
0000988291,5,-0.2632,0.5760,0.3013,0.7129,-1143,-582,643,-3139,-279,-315,-49,662,108,39.2202,78.4659,-8.0804,1,0
0000988312,5,-0.2675,0.5916,0.2991,0.6993,-1174,-579,588,-2743,-3,-219,-27,812,188,40.0380,80.8902,-7.3511,1,0
0000988333,5,-0.2714,0.6079,0.2994,0.6835,-1174,-579,588,-2531,567,-287,-104,830,307,44.2239,83.4681,-3.4658,1,0
0000988354,5,-0.2737,0.6257,0.3003,0.6658,-1214,-566,528,-2423,503,-63,-13,892,347,57.6025,86.0959,9.6793,1,0
0000988375,5,-0.2742,0.6441,0.2987,0.6486,-1257,-551,481,-2439,183,167,108,849,300,103.4297,87.9872,55.6267,1,0
0000988396,5,-0.2736,0.6647,0.2953,0.6295,-1257,-551,481,-2299,-23,323,90,737,279,172.0678,86.6492,124.6114,1,0
0000988417,5,-0.2727,0.6779,0.2941,0.6161,-1294,-536,448,-2119,35,259,46,612,289,184.5397,84.6957,137.2286,1,0
0000988438,5,-0.2701,0.6902,0.2931,0.6039,-1329,-518,436,-2063,195,247,155,561,310,188.6016,82.7607,141.5687,1,0
0000988459,5,-0.2637,0.7026,0.2889,0.5945,-1329,-518,436,-2259,43,351,377,466,289,189.9640,80.9949,143.8098,1,0
0000988480,5,-0.2548,0.7146,0.2805,0.5879,-1364,-486,452,-1911,-231,243,552,401,184,190.8417,79.5085,146.1621,1,0
0000988501,5,-0.2440,0.7275,0.2674,0.5828,-1389,-462,473,-1767,-379,183,495,303,119,192.1461,78.1056,149.5052,1,0
0000988522,5,-0.2373,0.7339,0.2593,0.5812,-1389,-462,473,-1691,-355,223,345,155,95,192.4817,77.4743,151.1072,1,0
0000988543,5,-0.2314,0.7376,0.2548,0.5810,-1404,-446,508,-1711,-119,195,264,20,102,191.7525,77.1418,151.2682,1,0
0000988564,5,-0.2250,0.7388,0.2512,0.5835,-1412,-427,560,-1771,-43,195,272,-93,95,190.2311,77.2096,150.6266,1,0
0000988585,5,-0.2180,0.7391,0.2471,0.5875,-1412,-427,560,-1919,-175,159,323,-161,47,188.4464,77.4715,149.8078,1,0
0000988606,5,-0.2093,0.7380,0.2390,0.5954,-1407,-409,623,-2055,-507,79,395,-206,-42,186.8242,78.1770,149.6590,1,0
0000988627,5,-0.2030,0.7362,0.2307,0.6030,-1390,-401,687,-2055,-619,-83,394,-239,-94,186.1915,78.9625,150.3025,1,0
0000988648,5,-0.1972,0.7336,0.2229,0.6109,-1390,-401,687,-2043,-571,-287,383,-283,-102,185.5352,79.8230,150.8277,1,0
0000988669,5,-0.1901,0.7305,0.2152,0.6196,-1368,-390,755,-2079,-251,-303,418,-323,-36,183.9754,80.7802,150.5594,1,0
0000988690,5,-0.1797,0.7272,0.2083,0.6288,-1344,-353,838,-2051,131,-347,529,-423,81,179.7727,81.6887,147.8355,1,0
0000988711,5,-0.1628,0.7219,0.2009,0.6418,-1344,-353,838,-1939,91,-599,463,-459,155,169.5476,82.8088,139.6823,1,0
0000988732,5,-0.1515,0.7171,0.2002,0.6502,-1318,-306,923,-1971,103,-595,198,-418,219,158.4119,83.2873,129.5679,1,0
0000988753,5,-0.1446,0.7119,0.2055,0.6558,-1294,-282,980,-2099,71,-907,-104,-307,253,146.9831,83.2876,118.2665,1,0
0000988774,5,-0.1460,0.7104,0.2175,0.6532,-1294,-282,980,-1427,203,95,-589,119,275,143.5745,82.5756,113.7280,1,0
0000988795,5,-0.1534,0.7046,0.2358,0.6515,-1284,-309,1012,-3019,-275,771,-574,-531,133,138.8252,82.0545,106.8003,1,0
0000988816,5,-0.1553,0.6936,0.2462,0.6589,-1258,-325,1064,-2783,-259,-571,-64,-136,25,127.4232,82.1152,94.3556,1,0
0000988837,5,-0.1539,0.6924,0.2472,0.6601,-1258,-325,1064,-1467,239,567,-52,-187,70,125.5939,81.9874,92.5585,1,0
0000988858,5,-0.1534,0.6850,0.2534,0.6656,-1230,-340,1130,-1847,223,1143,-238,-412,50,117.7132,81.7389,84.1857,1,0
0000988879,5,-0.1543,0.6767,0.2583,0.6720,-1192,-365,1190,-2139,203,735,-130,-340,-29,109.5487,81.5581,75.5317,1,0
0000988900,5,-0.1548,0.6688,0.2616,0.6785,-1192,-365,1190,-2115,359,567,-227,-424,-41,101.9875,81.3056,67.6414,1,0
0000988921,5,-0.1580,0.6571,0.2684,0.6865,-1149,-401,1233,-2115,511,95,-225,-340,-33,92.6866,80.7325,57.4742,1,0
0000988942,5,-0.1558,0.6520,0.2686,0.6917,-1114,-401,1281,-2019,483,323,167,-268,-29,88.1756,80.3014,53.1121,1,0
0000988963,5,-0.1490,0.6489,0.2633,0.6981,-1114,-401,1281,-2047,-3,327,351,-278,-70,83.7441,79.9023,49.7079,1,0
0000988984,5,-0.1440,0.6451,0.2582,0.7046,-1078,-385,1333,-2035,-151,315,150,-278,-108,79.0508,79.5527,45.8630,1,0
0000989005,5,-0.1443,0.6390,0.2578,0.7102,-1039,-413,1366,-2063,367,339,-146,-291,-71,74.4791,79.1250,41.2910,1,0
0000989026,5,-0.1460,0.6313,0.2607,0.7157,-1039,-413,1366,-2059,747,467,-96,-232,-27,70.4683,78.4430,36.8688,1,0
0000989047,5,-0.1451,0.6273,0.2607,0.7194,-1004,-425,1394,-2023,611,535,35,-192,-57,68.2260,78.0023,34.6917,1,0
0000989068,5,-0.1437,0.6242,0.2584,0.7231,-978,-425,1422,-2071,403,419,96,-155,-94,65.8377,77.7055,32.5985,1,0
0000989089,5,-0.1421,0.6223,0.2552,0.7262,-978,-425,1422,-2059,403,355,98,-100,-81,63.8596,77.5312,31.0272,1,0
0000989110,5,-0.1411,0.6211,0.2530,0.7283,-955,-422,1443,-2055,311,339,52,-64,-55,62.5024,77.4224,29.9368,1,0
0000989131,5,-0.1406,0.6197,0.2510,0.7302,-938,-419,1460,-2043,107,347,11,-60,-55,61.1524,77.3220,28.8001,1,0
0000989152,5,-0.1411,0.6179,0.2502,0.7319,-938,-419,1460,-2079,0,511,-45,-96,-55,59.9021,77.1825,27.5652,1,0
0000989173,5,-0.1428,0.6150,0.2507,0.7338,-913,-427,1477,-2031,-55,591,-87,-112,-64,58.4963,76.9668,25.9695,1,0
0000989194,5,-0.1452,0.6115,0.2513,0.7361,-887,-451,1490,-1999,-31,683,-130,-125,-78,56.8228,76.7114,24.0337,1,0
0000989215,5,-0.1484,0.6079,0.2524,0.7381,-887,-451,1490,-2027,147,591,-134,-121,-85,55.1723,76.4666,22.0090,1,1
0000989236,5,-0.1511,0.6038,0.2526,0.7408,-864,-470,1500,-2051,211,643,-59,-107,-77,53.2218,76.1519,19.7992,1,1
0000989257,5,-0.1523,0.6013,0.2519,0.7428,-846,-479,1508,-2099,147,587,-14,-90,-77,51.8987,75.9440,18.4269,1,1
0000989278,5,-0.1533,0.5990,0.2510,0.7448,-846,-479,1508,-2059,19,591,-39,-104,-85,50.5763,75.7445,17.0798,1,1
0000989299,5,-0.1562,0.5953,0.2514,0.7470,-823,-499,1517,-2043,35,559,-159,-140,-97,49.0152,75.4416,15.2313,1,1
0000989320,5,-0.1616,0.5904,0.2539,0.7489,-804,-541,1511,-2055,147,463,-306,-129,-89,47.4739,75.0981,13.0048,1,1
0000989341,5,-0.1703,0.5843,0.2591,0.7500,-804,-541,1511,-2063,223,447,-350,-108,-67,46.0106,74.7206,10.3302,1,1
0000989362,5,-0.1779,0.5794,0.2640,0.7503,-783,-590,1499,-2067,203,443,-376,-99,-63,45.1184,74.4464,8.3593,1,1
0000989383,5,-0.1864,0.5743,0.2693,0.7503,-765,-651,1485,-2059,127,559,-433,-89,-77,44.1859,74.1892,6.2168,1,1
0000989404,5,-0.1965,0.5690,0.2751,0.7496,-765,-651,1485,-2007,143,703,-488,-61,-84,43.1940,73.9875,3.8289,1,1
0000989425,5,-0.2072,0.5645,0.2811,0.7479,-750,-712,1458,-1991,231,763,-470,18,-59,42.3390,73.9192,1.5184,1,1
0000989446,5,-0.2170,0.5618,0.2867,0.7451,-753,-760,1427,-2079,283,547,-421,74,-19,41.9069,74.0584,-0.2569,1,1
0000989467,5,-0.2258,0.5621,0.2926,0.7399,-753,-760,1427,-2063,171,383,-255,160,59,42.3087,74.5582,-1.1135,1,1
0000989488,5,-0.2296,0.5644,0.2963,0.7355,-769,-776,1405,-2087,135,343,-171,170,110,43.3470,75.0797,-0.7051,1,1
0000989509,5,-0.2319,0.5675,0.3003,0.7308,-791,-778,1394,-2171,79,319,-148,177,150,45.0088,75.6141,0.4289,1,1
0000989530,5,-0.2339,0.5711,0.3045,0.7255,-791,-778,1394,-2163,-19,431,-169,229,173,47.1331,76.2104,2.0303,1,1
0000989551,5,-0.2368,0.5756,0.3091,0.7191,-822,-781,1374,-2227,-119,447,-197,271,179,49.6146,76.9479,3.8850,1,1
0000989572,5,-0.2417,0.5828,0.3149,0.7090,-868,-787,1340,-2267,-227,335,-217,391,197,53.4355,78.1553,6.8132,1,1
0000989593,5,-0.2465,0.5909,0.3197,0.6985,-868,-787,1340,-2403,-467,311,-244,491,235,57.9459,79.4366,10.5283,1,1
0000989614,5,-0.2522,0.6000,0.3249,0.6862,-937,-798,1293,-2395,-499,375,-287,558,253,64.3430,80.8547,16.0157,1,1
0000989635,5,-0.2590,0.6094,0.3317,0.6720,-1021,-821,1224,-2359,-299,475,-431,586,323,74.0345,82.2222,24.5440,1,1
0000989656,5,-0.2674,0.6175,0.3413,0.6563,-1021,-821,1224,-2327,-287,531,-543,569,325,87.8650,83.2358,36.7772,1,1
0000989677,5,-0.2807,0.6257,0.3541,0.6359,-1109,-856,1132,-2303,-291,511,-577,585,254,108.7911,83.9930,55.3698,1,1
0000989698,5,-0.2917,0.6320,0.3624,0.6199,-1192,-887,1032,-2179,-235,447,-519,582,197,127.3108,84.1923,72.1352,1,1
0000989719,5,-0.3020,0.6376,0.3688,0.6052,-1192,-887,1032,-2003,-23,435,-455,528,156,144.2076,83.9903,87.4925,1,1
0000989740,5,-0.3114,0.6418,0.3747,0.5923,-1261,-906,929,-1903,91,463,-438,400,119,157.1265,83.4824,98.9855,1,1
0000989761,5,-0.3198,0.6437,0.3807,0.5817,-1304,-918,845,-1811,179,471,-414,297,89,165.2500,82.9494,105.7455,1,1
0000989782,5,-0.3277,0.6434,0.3875,0.5731,-1304,-918,845,-1791,223,423,-307,120,43,170.0384,82.5127,109.1331,1,1
0000989803,5,-0.3315,0.6417,0.3917,0.5700,-1325,-917,791,-1807,211,343,-215,-2,6,170.8077,82.4100,109.1387,1,1
0000989824,5,-0.3337,0.6385,0.3950,0.5700,-1322,-906,763,-1847,195,175,-138,-112,-37,169.2456,82.5452,107.0744,1,1
0000989845,5,-0.3345,0.6342,0.3974,0.5727,-1322,-906,763,-1903,227,95,-88,-239,-84,165.5425,82.8676,103.0786,1,1
0000989866,5,-0.3344,0.6282,0.3998,0.5777,-1301,-897,761,-1951,263,31,-74,-313,-106,158.9902,83.2998,96.3221,1,1
0000989887,5,-0.3327,0.6192,0.4021,0.5867,-1270,-891,779,-2151,279,-103,12,-391,-146,146.4766,83.7927,83.7671,1,1
0000989908,5,-0.3302,0.6130,0.4008,0.5955,-1270,-891,779,-2295,139,-175,157,-335,-200,135.0965,84.0999,72.7568,1,1
0000989929,5,-0.3274,0.6091,0.3954,0.6045,-1240,-884,802,-2387,-43,-443,279,-236,-261,124.6470,84.4756,63.0931,1,1
0000989950,5,-0.3249,0.6070,0.3875,0.6131,-1214,-877,822,-2119,91,-771,325,-138,-260,114.7585,84.8984,54.1975,1,1
0000989971,5,-0.3222,0.6064,0.3793,0.6202,-1214,-877,822,-2071,35,-735,301,-109,-199,106.2161,85.2379,46.6792,1,0
0000989992,5,-0.3187,0.6056,0.3716,0.6274,-1199,-875,839,-2155,99,-659,208,-130,-151,96.8869,85.3639,38.3964,1,0
0000990013,5,-0.3159,0.6046,0.3678,0.6320,-1199,-875,839,-2007,539,-487,200,-112,-65,91.1360,85.2485,33.2580,1,0
0000990034,5,-0.3114,0.6052,0.3657,0.6349,-1190,-874,861,-2023,391,115,159,-101,33,89.9314,84.9842,32.6645,1,0
0000990055,5,-0.3096,0.6039,0.3660,0.6368,-1186,-877,875,-2119,-51,247,-37,-99,-30,88.3572,84.7086,31.2214,1,0
0000990076,5,-0.3129,0.6011,0.3663,0.6376,-1176,-913,855,-2151,-295,63,-167,17,-150,84.4150,84.7582,26.9363,1,0
0000990097,5,-0.3234,0.5999,0.3661,0.6336,-1176,-913,855,-2111,-191,-571,-344,266,-136,81.0109,85.5940,22.5988,1,0
0000990118,5,-0.3347,0.5999,0.3676,0.6269,-1183,-964,803,-1899,-451,7,-360,243,-144,80.3905,86.5466,20.8157,1,0
0000990139,5,-0.3425,0.5987,0.3675,0.6239,-1183,-964,803,-1867,-99,179,-180,132,-112,74.9139,87.1273,14.6219,1,0
0000990160,5,-0.3456,0.5999,0.3663,0.6216,-1187,-999,769,-1963,-151,447,12,139,-30,73.8965,87.5692,13.4270,1,0
0000990181,5,-0.3458,0.6027,0.3620,0.6214,-1188,-1012,761,-1983,-207,607,195,146,-101,71.0433,87.9992,10.9680,1,0
0000990202,5,-0.3455,0.6071,0.3528,0.6225,-1186,-1018,757,-1871,-211,547,243,177,-139,54.9057,88.6210,-4.2800,1,0
0000990223,5,-0.3447,0.6108,0.3450,0.6238,-1186,-1018,757,-1867,-271,463,271,109,-124,30.5063,88.9455,-27.8813,1,0
0000990244,5,-0.3414,0.6129,0.3378,0.6274,-1177,-1009,762,-1811,-459,543,333,-14,-79,14.9069,88.7883,-42.5057,1,0
0000990265,5,-0.3347,0.6148,0.3315,0.6325,-1177,-1009,762,-1847,-555,915,434,-120,-6,17.9622,88.5441,-38.2483,1,0
0000990286,5,-0.3253,0.6155,0.3256,0.6398,-1168,-978,790,-1899,-627,995,383,-206,6,28.0615,88.0281,-26.7588,1,0
0000990307,5,-0.3160,0.6130,0.3210,0.6491,-1152,-944,809,-1827,-663,1015,271,-305,-32,34.5967,87.0419,-18.9689,1,0
0000990328,5,-0.3090,0.6082,0.3196,0.6576,-1152,-944,809,-1847,-111,-331,237,-398,-24,38.4404,85.9032,-14.3751,1,0
0000990349,5,-0.3024,0.6062,0.3183,0.6632,-1127,-911,817,-2487,-127,1115,248,-150,61,41.6345,85.2058,-10.4768,1,0
0000990370,5,-0.2944,0.6043,0.3176,0.6688,-1115,-865,824,-2779,-619,875,244,-375,68,45.4589,84.4465,-5.8826,1,0
0000990391,5,-0.2866,0.5991,0.3174,0.6769,-1115,-865,824,-2371,-407,307,169,-308,38,46.9802,83.2191,-3.6852,1,0
0000990412,5,-0.2814,0.5930,0.3219,0.6823,-1104,-827,821,-2979,-527,543,-165,-346,126,49.7219,82.0444,-0.9084,1,0
0000990433,5,-0.2828,0.5838,0.3335,0.6841,-1101,-814,790,-2683,591,475,-502,-379,165,52.7250,80.8800,0.8795,1,0
0000990454,5,-0.2862,0.5740,0.3483,0.6836,-1101,-814,790,-2295,875,287,-500,-347,205,56.2938,79.7759,2.7453,1,0
0000990475,5,-0.2852,0.5671,0.3580,0.6848,-1110,-802,754,-1795,663,355,-96,-307,161,58.9256,78.7697,4.5351,1,0
0000990496,5,-0.2773,0.5644,0.3603,0.6890,-1113,-760,769,-2007,583,443,387,-293,88,60.6415,77.8384,6.7165,1,0
0000990517,5,-0.2616,0.5642,0.3551,0.6979,-1113,-760,769,-2359,363,475,554,-269,12,61.0013,76.7474,8.9170,1,0
0000990538,5,-0.2501,0.5649,0.3485,0.7049,-1106,-706,803,-2467,415,483,481,-186,-17,60.3342,76.0952,9.8552,1,0
0000990559,5,-0.2406,0.5669,0.3440,0.7088,-1112,-655,822,-2687,815,-475,403,-80,85,60.6753,75.7329,11.4372,1,0
0000990580,5,-0.2287,0.5716,0.3395,0.7112,-1112,-655,822,-1859,511,71,559,-28,163,62.3171,75.5228,14.5347,1,0
0000990601,5,-0.2149,0.5764,0.3339,0.7142,-1127,-596,847,-1743,243,779,520,-150,95,63.8470,75.2069,17.7792,1,0
0000990622,5,-0.2014,0.5776,0.3279,0.7199,-1127,-547,878,-2035,-331,999,383,-166,30,63.8173,74.5182,19.4303,1,0
0000990643,5,-0.1949,0.5772,0.3244,0.7236,-1127,-547,878,-2143,-439,563,196,-124,-21,63.2487,74.1160,19.7231,1,0
0000990664,5,-0.1931,0.5756,0.3227,0.7261,-1126,-525,884,-2015,-147,431,58,-97,-40,62.3754,73.8555,19.1412,1,0
0000990685,5,-0.1917,0.5738,0.3216,0.7284,-1124,-521,883,-1831,287,407,58,-121,-44,61.5494,73.5772,18.5167,1,0
0000990706,5,-0.1899,0.5719,0.3202,0.7310,-1124,-521,883,-1951,371,403,126,-107,-41,60.6990,73.2799,17.9411,1,0
0000990727,5,-0.1854,0.5716,0.3167,0.7338,-1127,-507,886,-2007,459,255,207,-57,-25,60.0251,73.0283,17.9461,1,0
0000990748,5,-0.1811,0.5729,0.3128,0.7356,-1129,-487,885,-2027,555,303,250,-17,-29,59.6734,72.9743,18.3176,1,0
0000990769,5,-0.1755,0.5748,0.3078,0.7376,-1129,-487,885,-1979,495,399,320,-43,-39,59.3131,72.9358,18.8770,1,0
0000990790,5,-0.1692,0.5765,0.3021,0.7401,-1131,-464,897,-1995,487,487,343,-30,-37,58.7765,72.8615,19.3894,1,0
0000990811,5,-0.1621,0.5794,0.2959,0.7420,-1137,-434,903,-1999,255,503,400,5,-14,58.5794,72.8717,20.3464,1,0
0000990832,5,-0.1528,0.5841,0.2881,0.7433,-1137,-434,903,-2015,183,591,364,46,6,58.7591,73.0075,22.0116,1,0
0000990853,5,-0.1469,0.5875,0.2833,0.7436,-1145,-403,911,-2003,159,587,278,60,10,59.0505,73.1446,23.2294,1,0
0000990874,5,-0.1426,0.5911,0.2796,0.7430,-1157,-380,903,-2063,243,487,228,104,27,59.6083,73.3698,24.4869,1,0
0000990895,5,-0.1381,0.5957,0.2762,0.7415,-1157,-380,903,-2063,187,467,247,150,59,60.6691,73.6702,26.2358,1,0
0000990916,5,-0.1343,0.6012,0.2738,0.7386,-1173,-353,891,-2079,171,539,171,209,86,62.3715,74.0803,28.4850,1,0
0000990937,5,-0.1320,0.6085,0.2726,0.7335,-1192,-329,862,-2051,163,575,98,265,85,65.1268,74.7053,31.5728,1,0
0000990958,5,-0.1310,0.6149,0.2716,0.7287,-1192,-329,862,-2071,135,683,88,289,70,67.7084,75.3029,34.3485,1,0
0000990979,5,-0.1306,0.6210,0.2704,0.7240,-1219,-308,831,-2051,79,715,79,274,50,70.2250,75.8954,37.0182,1,0
0000991000,5,-0.1307,0.6264,0.2694,0.7196,-1239,-295,794,-2007,75,799,31,241,35,72.6606,76.4291,39.5470,1,0
0000991021,5,-0.1325,0.6304,0.2695,0.7159,-1239,-295,794,-1999,143,615,-60,209,6,74.6364,76.8888,41.3867,1,0
0000991042,5,-0.1366,0.6342,0.2702,0.7115,-1259,-294,761,-2047,171,551,-106,188,-20,76.7680,77.4646,43.1287,1,0
0000991063,5,-0.1406,0.6364,0.2710,0.7083,-1273,-293,721,-2035,139,419,-125,165,-34,78.1598,77.9114,44.1181,1,0
0000991084,5,-0.1448,0.6381,0.2720,0.7056,-1273,-293,721,-1975,231,451,-130,138,-35,79.2958,78.3174,44.8291,1,0
0000991105,5,-0.1489,0.6389,0.2731,0.7036,-1286,-299,693,-1943,263,507,-139,80,-51,79.9161,78.6304,45.0185,1,0
0000991126,5,-0.1530,0.6386,0.2740,0.7026,-1296,-305,669,-1947,263,375,-123,53,-75,79.7835,78.8982,44.4644,1,0
0000991147,5,-0.1577,0.6385,0.2743,0.7016,-1296,-305,669,-1983,291,395,-96,51,-73,79.4408,79.2439,43.7001,1,0
0000991168,5,-0.1610,0.6383,0.2742,0.7010,-1302,-316,645,-1983,243,403,-87,39,-79,79.0146,79.5007,43.0161,1,0
0000991189,5,-0.1647,0.6376,0.2743,0.7007,-1305,-321,622,-1959,143,535,-122,16,-89,78.2260,79.7388,41.9052,1,0
0000991210,5,-0.1692,0.6359,0.2754,0.7009,-1305,-321,622,-1879,-11,583,-185,-24,-88,76.9350,79.8965,40.1404,1,0
0000991231,5,-0.1741,0.6330,0.2777,0.7013,-1308,-332,607,-1819,23,587,-219,-57,-50,75.3203,79.9333,37.9066,1,0
0000991252,5,-0.1796,0.6298,0.2822,0.7010,-1309,-334,588,-2003,183,339,-234,2,10,74.3469,79.8650,36.0665,1,0
0000991273,5,-0.1835,0.6306,0.2861,0.6977,-1309,-334,588,-2447,75,-31,-181,194,79,76.3068,80.0542,37.3599,1,0
0000991294,5,-0.1858,0.6362,0.2892,0.6907,-1325,-320,544,-2451,251,-247,-80,368,182,81.8778,80.5191,42.4871,1,0
0000991315,5,-0.1851,0.6454,0.2921,0.6811,-1354,-280,482,-2363,787,-403,14,476,306,91.2801,80.8529,51.7106,1,0
0000991336,5,-0.1819,0.6571,0.2949,0.6694,-1354,-280,482,-2535,967,-295,113,531,365,103.5878,80.7742,64.0469,1,0
0000991357,5,-0.1762,0.6713,0.2958,0.6564,-1384,-231,423,-2527,983,-339,190,413,259,116.6717,80.2224,77.5316,1,0
0000991378,5,-0.1714,0.6803,0.2928,0.6497,-1403,-191,377,-2343,739,-367,293,336,134,123.3794,79.8377,84.9018,1,0
0000991399,5,-0.1671,0.6880,0.2867,0.6454,-1403,-191,377,-1891,519,-191,309,235,8,128.3731,79.7011,90.7838,1,0
0000991420,5,-0.1648,0.6925,0.2807,0.6438,-1417,-182,354,-1679,335,-99,208,128,-64,131.2362,79.7922,94.3604,1,0
0000991462,5,-0.1724,0.6936,0.2715,0.6446,-1419,-191,343,-1559,63,-107,-110,49,-276,134.6727,81.0380,97.9702,1,0
0000991483,5,-0.1814,0.6914,0.2694,0.6453,-1414,-226,330,-1611,179,-123,-219,9,-312,136.2630,81.9393,98.9904,1,0
0000991504,5,-0.1910,0.6874,0.2690,0.6470,-1406,-266,319,-1699,411,-171,-257,-64,-288,136.4344,82.8719,98.3952,1,0
0000991525,5,-0.1988,0.6834,0.2692,0.6488,-1406,-266,319,-1779,479,-103,-183,-62,-219,135.5901,83.6429,96.8787,1,0
0000991546,5,-0.2024,0.6807,0.2671,0.6514,-1399,-292,325,-1539,111,627,72,-131,-187,133.7911,84.2376,94.9623,1,0
0000991567,5,-0.1981,0.6749,0.2587,0.6621,-1384,-308,363,-1795,-199,507,381,-387,-200,120.7531,84.9856,83.0281,1,0
0000991588,5,-0.1919,0.6702,0.2495,0.6721,-1384,-308,363,-1971,-255,675,411,-356,-205,106.2754,85.3308,69.8668,1,0
0000991609,5,-0.1864,0.6620,0.2414,0.6846,-1366,-318,416,-3059,-383,763,317,-635,-268,85.2356,85.1822,49.9847,1,0
0000991630,5,-0.1839,0.6508,0.2331,0.6988,-1342,-347,470,-3287,103,-2187,275,-412,-399,62.8243,84.4243,28.4858,1,0
0000991651,5,-0.1824,0.6595,0.2177,0.6960,-1342,-347,470,-1891,787,-899,596,793,-164,60.4256,85.8882,27.5367,1,0
0000991672,5,-0.1742,0.6693,0.2049,0.6926,-1358,-341,425,-2099,551,171,329,-376,-65,68.3426,86.8752,37.2248,1,0
0000991693,5,-0.1709,0.6572,0.2012,0.7059,-1338,-356,494,-2407,887,-471,102,-590,-233,47.1796,85.3517,16.6371,1,0
0000991714,5,-0.1718,0.6530,0.1991,0.7103,-1338,-356,494,-2603,467,-743,-18,-4,-93,40.6730,84.8567,10.2291,1,0
0000991735,5,-0.1773,0.6561,0.1993,0.7059,-1334,-368,486,-2519,-135,-899,-227,340,-80,39.3405,85.5872,8.4290,1,0
0000991756,5,-0.1856,0.6629,0.2010,0.6969,-1343,-388,433,-2619,163,-715,-256,485,12,40.1425,86.9734,8.4041,1,0
0000991777,5,-0.1915,0.6722,0.2034,0.6857,-1343,-388,433,-2831,695,-1323,-130,690,119,57.5230,88.5446,25.0895,1,0
0000991798,5,-0.1960,0.6919,0.2024,0.6648,-1367,-378,351,-2551,483,-1391,-32,1000,129,183.0349,87.7411,150.3038,1,0
0000991819,5,-0.2006,0.7087,0.2006,0.6460,-1383,-375,253,-2471,335,-1259,-113,861,73,196.4715,84.9206,163.4743,1,0
0000991840,5,-0.2067,0.7215,0.2025,0.6291,-1383,-375,253,-2419,799,-691,-291,769,142,199.4640,82.5062,165.7592,1,0
0000991861,5,-0.2109,0.7329,0.2078,0.6125,-1397,-366,175,-2451,1179,-39,-119,644,285,198.8027,80.2262,164.2301,1,0
0000991882,5,-0.2080,0.7460,0.2093,0.5971,-1413,-334,112,-2659,1619,411,180,744,367,196.7500,77.9109,162.2307,1,0
0000991903,5,-0.1951,0.7685,0.1997,0.5757,-1413,-334,112,-2967,999,335,629,926,383,194.9900,74.3240,162.2589,1,0
0000991924,5,-0.1809,0.7893,0.1840,0.5572,-1429,-296,40,-2599,75,-215,865,1030,359,194.3956,71.1034,164.0763,1,0
0000991945,5,-0.1648,0.8097,0.1664,0.5380,-1440,-257,-36,-2255,-27,-343,824,972,392,193.4655,67.8430,165.8496,1,0
0000991966,5,-0.1502,0.8268,0.1528,0.5201,-1440,-257,-36,-2227,39,-527,634,830,401,192.1825,64.9516,166.8233,1,0
0000991987,5,-0.1354,0.8419,0.1407,0.5031,-1454,-217,-112,-2259,-355,-579,687,785,406,190.7082,62.2814,167.5101,1,0
0000992008,5,-0.1169,0.8588,0.1244,0.4830,-1455,-182,-180,-2119,-1019,-679,616,756,356,189.0615,59.1766,168.6705,1,0
0000992029,5,-0.1061,0.8707,0.1142,0.4664,-1455,-182,-180,-1819,-1395,-563,385,753,275,188.2129,56.7715,169.4992,1,0
0000992050,5,-0.1008,0.8808,0.1098,0.4494,-1458,-155,-264,-1639,-1367,-403,108,711,169,187.8099,54.4655,169.8165,1,0
0000992071,5,-0.1005,0.8887,0.1095,0.4338,-1447,-143,-341,-1503,-1131,-163,-197,585,71,187.8931,52.4641,169.8395,1,0
0000992092,5,-0.1042,0.8942,0.1151,0.4199,-1447,-143,-341,-1311,-999,35,-405,482,7,188.1508,50.8005,169.2021,1,0
0000992113,5,-0.1133,0.8979,0.1275,0.4058,-1440,-124,-407,-1139,-891,171,-614,359,-40,188.8197,49.2531,167.8879,1,0
0000992134,5,-0.1235,0.8981,0.1424,0.3974,-1428,-103,-452,-891,-659,291,-786,221,-71,189.4458,48.4953,166.2457,1,0
0000992155,5,-0.1350,0.8956,0.1614,0.3918,-1428,-103,-452,-771,-391,395,-887,59,-96,189.9701,48.2020,164.0386,1,0
0000992176,5,-0.1473,0.8906,0.1819,0.3900,-1424,-75,-467,-731,143,399,-926,-144,-141,190.4576,48.4411,161.6318,1,0
0000992197,5,-0.1593,0.8831,0.2023,0.3922,-1426,-52,-447,-831,659,183,-865,-277,-182,190.8300,49.2091,159.1720,1,0
0000992218,5,-0.1734,0.8706,0.2243,0.4020,-1426,-52,-447,-1035,819,115,-667,-525,-292,191.1580,51.0598,156.4544,1,0
0000992239,5,-0.1835,0.8582,0.2375,0.4164,-1433,-60,-389,-1455,739,91,-496,-733,-385,191.3173,53.3160,154.7631,1,0
0000992260,5,-0.1923,0.8441,0.2458,0.4360,-1444,-97,-295,-1843,715,-63,-338,-882,-439,191.4147,56.1599,153.6323,1,0
0000992281,5,-0.1987,0.8288,0.2517,0.4585,-1444,-97,-295,-2135,707,-239,-192,-1000,-415,191.1404,59.3281,152.5762,1,0
0000992302,5,-0.2027,0.8125,0.2561,0.4829,-1451,-138,-186,-2587,715,-543,-167,-1069,-385,190.2978,62.6816,151.2935,1,0
0000992323,5,-0.2048,0.7901,0.2610,0.5154,-1449,-175,-60,-2927,531,-711,-75,-1168,-360,188.0685,67.1284,148.7967,1,0
0000992344,5,-0.2044,0.7714,0.2628,0.5423,-1449,-175,-60,-2947,279,-779,-9,-1172,-355,185.2776,70.7482,146.1225,1,0
0000992365,5,-0.2042,0.7519,0.2648,0.5682,-1442,-206,66,-2607,251,-975,-89,-1178,-364,181.3080,74.2815,142.1923,1,0
0000992386,5,-0.2055,0.7304,0.2692,0.5931,-1426,-241,187,-2983,679,-739,-229,-1184,-326,174.8669,77.7091,135.4046,1,0
0000992407,5,-0.2066,0.7070,0.2778,0.6166,-1426,-241,187,-4515,647,-623,-444,-1260,-219,161.8784,80.6622,121.6734,1,0
0000992428,5,-0.2119,0.6764,0.2924,0.6419,-1402,-272,306,-2359,547,-1451,-512,-1023,-249,134.1139,82.9010,92.2469,1,0
0000992449,5,-0.2133,0.6569,0.3018,0.6572,-1382,-298,401,-1835,399,-403,-293,-930,-80,111.2142,82.8214,68.4027,1,0
0000992470,5,-0.2123,0.6371,0.3115,0.6723,-1382,-298,401,-2307,423,-459,-343,-940,-71,92.2933,81.4621,48.6924,1,0
0000992491,5,-0.2125,0.6214,0.3195,0.6831,-1358,-312,478,-4143,799,-1191,-240,-549,-42,82.1908,79.9781,37.8250,1,0
0000992512,5,-0.2143,0.6149,0.3252,0.6857,-1354,-321,498,-1207,1247,-67,-330,-186,62,79.9686,79.3274,34.9088,1,0
0000992533,5,-0.2175,0.6045,0.3358,0.6889,-1354,-321,498,-1195,1011,1079,-292,-418,39,77.6636,78.2045,31.3454,1,0
0000992554,5,-0.2148,0.5969,0.3384,0.6950,-1343,-331,535,-2095,555,683,134,-344,-51,74.7308,77.1889,28.3688,1,0
0000992575,5,-0.2081,0.5950,0.3349,0.7004,-1333,-327,566,-2191,111,399,308,-158,-3,73.0133,76.6148,27.5246,1,0
0000992596,5,-0.2025,0.5954,0.3313,0.7033,-1333,-327,566,-2039,-7,631,209,-89,-10,72.4030,76.3536,27.7108,1,0
0000992617,5,-0.1997,0.5944,0.3290,0.7061,-1329,-324,584,-2055,391,767,132,-124,-66,71.3042,76.1227,27.0571,1,0
0000992638,5,-0.1962,0.5925,0.3248,0.7106,-1322,-327,605,-2007,319,807,170,-137,-90,69.2322,75.8079,25.6470,1,0
0000992659,5,-0.1941,0.5908,0.3219,0.7139,-1322,-327,605,-2035,87,543,104,-105,-77,67.6537,75.5813,24.4983,1,0
0000992680,5,-0.1925,0.5897,0.3197,0.7163,-1313,-331,619,-2075,19,495,99,-76,-50,66.5510,75.4226,23.7226,1,0
0000992701,5,-0.1909,0.5887,0.3183,0.7181,-1310,-327,628,-2079,67,447,51,-79,-11,65.8320,75.2492,23.2581,1,0
0000992722,5,-0.1909,0.5869,0.3197,0.7190,-1310,-327,628,-2091,63,475,-142,-65,35,65.6229,75.0070,22.9173,1,0
0000992743,5,-0.1944,0.5840,0.3249,0.7180,-1306,-334,628,-2015,299,523,-248,-19,59,65.9897,74.8024,22.4999,1,0
0000992764,5,-0.1983,0.5821,0.3306,0.7159,-1308,-334,624,-2003,347,619,-258,9,89,66.8215,74.7068,22.4821,1,0
0000992785,5,-0.2008,0.5817,0.3356,0.7132,-1308,-334,624,-1943,311,591,-163,66,123,68.2123,74.7024,23.2117,1,0
0000992806,5,-0.2020,0.5829,0.3395,0.7100,-1316,-331,608,-2043,267,551,-111,92,125,69.9824,74.7868,24.5283,1,0
0000992827,5,-0.2037,0.5842,0.3430,0.7069,-1323,-325,595,-2063,183,559,-151,96,81,71.5761,74.9160,25.6815,1,0
0000992848,5,-0.2073,0.5850,0.3470,0.7031,-1323,-325,595,-2003,151,591,-166,96,56,73.0893,75.1400,26.5180,1,0
0000992869,5,-0.2105,0.5856,0.3501,0.7001,-1330,-325,576,-1967,167,503,-159,95,59,74.1912,75.3314,27.0716,1,0
0000992890,5,-0.2130,0.5859,0.3531,0.6975,-1337,-322,565,-2007,187,615,-140,60,58,75.2698,75.4457,27.6637,1,0
0000992911,5,-0.2154,0.5855,0.3557,0.6959,-1337,-322,565,-2019,223,571,-136,20,19,75.8202,75.4931,27.7737,1,0
0000992932,5,-0.2183,0.5842,0.3582,0.6948,-1338,-328,558,-2055,351,467,-170,9,0,75.9407,75.5169,27.4111,1,0
0000992953,5,-0.2227,0.5822,0.3617,0.6933,-1342,-334,550,-2027,391,463,-180,3,0,75.9888,75.5480,26.7582,1,0
0000992974,5,-0.2258,0.5807,0.3643,0.6922,-1342,-334,550,-2011,339,415,-155,3,-1,76.0355,75.5613,26.2898,1,0
0000992995,5,-0.2285,0.5794,0.3664,0.6913,-1340,-342,542,-1967,319,451,-134,5,-4,76.0335,75.5772,25.8596,1,0
0000993016,5,-0.2312,0.5783,0.3682,0.6903,-1339,-344,540,-2027,279,491,-125,10,-9,76.0189,75.6200,25.4442,1,0
0000993037,5,-0.2337,0.5771,0.3698,0.6896,-1339,-344,540,-2111,283,563,-125,0,-15,75.9072,75.6506,24.9598,1,0
0000993058,5,-0.2374,0.5750,0.3720,0.6889,-1337,-353,534,-2055,295,615,-151,-9,-36,75.5005,75.6681,24.0182,1,0
0000993079,5,-0.2410,0.5727,0.3736,0.6887,-1333,-367,534,-1975,323,703,-156,-22,-68,74.7970,75.6903,22.8470,1,0
0000993100,5,-0.2446,0.5703,0.3743,0.6891,-1333,-367,534,-1991,323,683,-124,-28,-97,73.6698,75.7130,21.3305,1,0
0000993121,5,-0.2477,0.5681,0.3739,0.6900,-1327,-385,533,-1987,307,691,-73,-32,-115,72.2951,75.7421,19.7060,1,0
0000993142,5,-0.2504,0.5662,0.3727,0.6912,-1319,-399,534,-1987,295,591,-48,-15,-136,70.7261,75.7975,18.0041,1,0
0000993163,5,-0.2536,0.5650,0.3692,0.6929,-1319,-399,534,-1987,327,639,36,17,-164,68.4456,75.9964,15.7664,1,0
0000993184,5,-0.2548,0.5650,0.3647,0.6949,-1311,-415,536,-1971,347,731,107,15,-180,66.4048,76.1821,14.0392,1,0
0000993205,5,-0.2557,0.5653,0.3591,0.6972,-1304,-430,539,-2003,295,759,130,34,-202,64.0549,76.3903,12.1257,1,0
0000993226,5,-0.2565,0.5665,0.3523,0.6994,-1304,-430,539,-2015,295,795,186,77,-220,61.4817,76.7009,10.1115,1,0
0000993247,5,-0.2568,0.5689,0.3443,0.7013,-1292,-447,538,-1979,143,731,248,126,-224,58.7637,77.1147,8.1127,1,0
0000993268,5,-0.2563,0.5734,0.3328,0.7033,-1290,-457,532,-1947,31,687,285,160,-208,55.2801,77.7595,5.7418,1,0
0000993289,5,-0.2555,0.5779,0.3239,0.7041,-1290,-457,532,-2027,-23,483,274,190,-167,52.7715,78.3487,4.1299,1,0
0000993310,5,-0.2542,0.5833,0.3157,0.7039,-1286,-464,524,-2099,19,187,283,220,-113,50.9018,79.0087,3.1405,1,0
0000993331,5,-0.2522,0.5896,0.3080,0.7027,-1290,-455,508,-2115,63,55,284,255,-72,49.6903,79.7677,2.8164,1,0
0000993352,5,-0.2507,0.5968,0.3010,0.7003,-1290,-455,508,-2231,143,-83,234,321,-48,48.9792,80.6679,2.8970,1,0
0000993373,5,-0.2498,0.6069,0.2926,0.6955,-1297,-454,482,-2243,207,-175,222,388,-28,48.4477,82.0221,3.2281,1,0
0000993394,5,-0.2487,0.6170,0.2857,0.6898,-1306,-445,446,-2271,243,-335,270,471,14,49.2276,83.3814,4.7409,1,0
0000993415,5,-0.2459,0.6295,0.2778,0.6827,-1306,-445,446,-2315,271,-367,358,568,72,52.6602,84.9734,9.1462,1,0
0000993436,5,-0.2414,0.6443,0.2693,0.6738,-1325,-422,402,-2363,447,-351,409,631,138,64.5567,86.7102,22.1971,1,0
0000993457,5,-0.2352,0.6605,0.2609,0.6636,-1344,-388,348,-2471,423,-339,457,708,219,103.7268,87.9028,62.6415,1,0
0000993478,5,-0.2267,0.6817,0.2508,0.6488,-1344,-388,348,-2643,435,-315,393,727,243,163.5940,86.6912,124.1057,1,0
0000993499,5,-0.2215,0.6982,0.2451,0.6352,-1364,-355,293,-2355,627,-411,283,761,268,178.7502,84.5506,140.1811,1,0
0000993520,5,-0.2166,0.7141,0.2402,0.6209,-1382,-316,228,-2147,395,-407,280,728,274,184.6693,82.2016,146.8946,1,0
0000993541,5,-0.2117,0.7278,0.2355,0.6083,-1382,-316,228,-2199,371,-595,235,599,223,187.2392,80.1129,150.2275,1,0
0000993562,5,-0.2090,0.7387,0.2347,0.5963,-1389,-288,180,-2163,355,-491,-77,492,308,188.1469,78.2522,151.3755,1,0
0000993583,5,-0.2062,0.7480,0.2428,0.5823,-1402,-246,152,-2123,251,-303,-193,330,415,186.1844,76.2151,148.8780,1,0
0000993604,5,-0.2004,0.7550,0.2489,0.5725,-1402,-246,152,-2035,323,43,79,361,447,183.8174,74.6522,146.4188,1,0
0000993625,5,-0.1899,0.7663,0.2459,0.5624,-1415,-194,121,-1943,507,195,473,506,382,182.7992,72.8050,146.4736,1,0
0000993646,5,-0.1777,0.7797,0.2358,0.5522,-1421,-152,84,-1935,231,123,671,540,309,182.9004,70.8817,148.4048,1,0
0000993667,5,-0.1639,0.7917,0.2231,0.5445,-1421,-152,84,-1827,-179,135,695,290,270,182.6776,69.2885,150.3735,1,0
0000993688,5,-0.1470,0.8007,0.2103,0.5413,-1428,-123,76,-1651,-363,271,544,97,270,181.1809,68.2283,151.3651,1,0
0000993709,5,-0.1349,0.8047,0.2046,0.5408,-1431,-84,82,-1691,-363,287,374,21,287,179.3714,67.7484,151.0511,1,0
0000993730,5,-0.1250,0.8065,0.2025,0.5412,-1431,-84,82,-1771,-423,123,219,-79,247,177.3599,67.4622,150.0409,1,0
0000993751,5,-0.1175,0.8059,0.2025,0.5438,-1431,-53,102,-1911,-343,59,120,-165,199,175.3728,67.5318,148.6922,1,0
0000993772,5,-0.1116,0.8039,0.2035,0.5477,-1424,-32,128,-1943,-291,-19,79,-246,117,173.3732,67.8058,147.1247,1,0
0000993793,5,-0.1059,0.7996,0.2028,0.5552,-1424,-32,128,-2059,-327,-103,142,-301,33,171.1961,68.5722,145.5262,1,0
0000993814,5,-0.1016,0.7957,0.1986,0.5630,-1418,-26,160,-2175,-543,-99,237,-331,-56,169.8212,69.4593,144.9010,1,0
0000993835,5,-0.0987,0.7913,0.1929,0.5717,-1410,-35,195,-2187,-623,-99,215,-369,-150,168.8602,70.5434,144.7072,1,0
0000993856,5,-0.0983,0.7854,0.1874,0.5817,-1410,-35,195,-2167,-707,-103,109,-425,-208,168.1810,71.9168,144.5682,1,0
0000993877,5,-0.1006,0.7776,0.1845,0.5925,-1396,-62,235,-2183,-611,-143,-33,-482,-250,167.3660,73.4759,143.8527,1,0
0000993898,5,-0.1071,0.7656,0.1834,0.6073,-1382,-95,283,-2259,-495,-139,-159,-538,-300,166.2275,75.7321,142.3335,1,0
0000993919,5,-0.1140,0.7549,0.1830,0.6194,-1382,-95,283,-2351,-387,-195,-183,-532,-335,165.2160,77.6582,140.8281,1,0
0000993940,5,-0.1216,0.7446,0.1821,0.6306,-1370,-141,321,-2443,-351,-283,-163,-487,-367,164.4622,79.5323,139.5600,1,0
0000993961,5,-0.1292,0.7346,0.1802,0.6413,-1356,-189,355,-2511,-467,-295,-158,-465,-371,164.0507,81.3795,138.7023,1,0
0000993982,5,-0.1380,0.7240,0.1797,0.6515,-1356,-189,355,-2479,-463,-55,-286,-488,-364,163.1395,83.2203,137.1267,1,0
0000994003,5,-0.1498,0.7115,0.1840,0.6615,-1346,-244,391,-2439,-339,35,-540,-543,-337,159.3637,85.0946,132.0333,1,0
0000994024,5,-0.1691,0.6922,0.1962,0.6736,-1332,-300,417,-2387,-315,43,-773,-598,-305,139.5931,87.3373,109.6485,1,0
0000994045,5,-0.1858,0.6765,0.2086,0.6814,-1332,-300,417,-2303,-151,51,-823,-528,-254,94.0625,88.1113,61.6744,1,0
0000994066,5,-0.2020,0.6622,0.2219,0.6866,-1320,-353,429,-2063,23,-31,-837,-426,-178,56.6529,87.4479,21.7595,1,0
0000994087,5,-0.2172,0.6494,0.2364,0.6894,-1319,-393,430,-1955,119,23,-836,-366,-73,44.2592,86.4048,6.8251,1,0
0000994108,5,-0.2310,0.6376,0.2519,0.6904,-1319,-393,430,-1959,335,-499,-828,-290,-3,41.5571,85.3992,1.5898,1,0
0000994129,5,-0.2460,0.6300,0.2702,0.6852,-1327,-406,403,-2563,279,375,-705,42,117,45.1277,85.1115,2.2684,1,0
0000994150,5,-0.2580,0.6242,0.2853,0.6800,-1337,-418,369,-2883,-43,851,-854,-125,71,48.7008,84.9628,3.4658,1,0
0000994171,5,-0.2747,0.6149,0.3031,0.6742,-1337,-418,369,-1907,615,-115,-1038,-19,43,49.6654,84.6663,1.3775,1,0
0000994192,5,-0.2887,0.6081,0.3200,0.6666,-1352,-426,327,-2123,1251,1303,-818,-176,197,53.6723,84.6207,2.6232,1,0
0000994213,5,-0.2977,0.5976,0.3407,0.6620,-1361,-414,323,-2143,1387,723,-905,-354,294,60.5855,83.7247,6.8246,1,0
0000994234,5,-0.3034,0.5863,0.3634,0.6574,-1361,-414,323,-2403,311,-147,-376,-218,242,68.3111,82.4566,11.9138,1,0
0000994255,5,-0.3016,0.5839,0.3703,0.6565,-1373,-385,331,-2391,87,99,-111,-114,178,71.8417,81.8955,14.9495,1,0
0000994276,5,-0.3017,0.5817,0.3766,0.6548,-1382,-372,332,-2175,503,467,-210,-89,135,74.4576,81.5116,16.9625,1,0
0000994297,5,-0.3009,0.5792,0.3820,0.6543,-1382,-372,332,-1739,743,627,-70,-178,103,76.1452,81.0395,18.2023,1,0
0000994318,5,-0.2990,0.5755,0.3868,0.6556,-1387,-358,347,-1839,723,495,-125,-213,99,76.7718,80.3626,18.5344,1,0
0000994339,5,-0.2976,0.5721,0.3924,0.6559,-1393,-348,357,-2027,387,311,-35,-77,79,77.8556,79.7404,19.1938,1,0
0000994360,5,-0.2944,0.5727,0.3930,0.6564,-1393,-348,357,-2127,251,115,134,-58,89,78.8736,79.5055,20.4377,1,0
0000994381,5,-0.2890,0.5735,0.3933,0.6580,-1397,-332,369,-1971,295,395,149,-135,111,79.9538,79.1107,21.9777,1,0
0000994402,5,-0.2846,0.5718,0.3956,0.6599,-1398,-317,389,-2015,327,571,-44,-184,91,80.4674,78.4979,22.6462,1,0
0000994423,5,-0.2827,0.5688,0.3993,0.6611,-1398,-317,389,-2079,403,403,-62,-150,69,80.6511,77.9290,22.6356,1,0
0000994444,5,-0.2816,0.5665,0.4026,0.6615,-1403,-309,399,-1995,447,371,-62,-65,50,80.9991,77.5074,22.7510,1,0
0000994465,5,-0.2816,0.5652,0.4050,0.6612,-1401,-304,401,-1971,491,423,-76,-53,49,81.3453,77.3098,22.8631,1,0
0000994486,5,-0.2813,0.5642,0.4071,0.6609,-1401,-304,401,-2031,395,435,-32,-43,40,81.7615,77.1138,23.1005,1,0
0000994507,5,-0.2806,0.5642,0.4075,0.6610,-1405,-300,405,-1991,347,507,45,4,5,81.9618,77.0417,23.3242,1,0
0000994528,5,-0.2798,0.5648,0.4067,0.6613,-1404,-300,403,-1983,299,479,57,-9,-11,81.9830,77.0489,23.4968,1,0
0000994549,5,-0.2783,0.5643,0.4055,0.6631,-1404,-300,403,-1971,271,527,62,-81,-37,81.2720,76.9208,23.0333,1,0
0000994570,5,-0.2770,0.5626,0.4045,0.6657,-1399,-305,417,-2035,211,487,45,-112,-65,80.0650,76.6871,22.0193,1,0
0000994591,5,-0.2764,0.5602,0.4033,0.6686,-1393,-315,431,-2019,259,471,33,-128,-98,78.4433,76.4468,20.5427,1,0
0000994612,5,-0.2761,0.5573,0.4019,0.6721,-1393,-315,431,-1999,315,439,29,-140,-124,76.4788,76.1665,18.7246,1,0
0000994633,5,-0.2759,0.5543,0.4000,0.6757,-1386,-330,447,-1987,259,411,71,-140,-132,74.4345,75.8931,16.8590,1,0
0000994654,5,-0.2740,0.5514,0.3965,0.6810,-1378,-340,470,-1995,235,423,138,-146,-126,71.9576,75.5085,14.8576,1,0
0000994675,5,-0.2716,0.5496,0.3927,0.6855,-1378,-340,470,-2091,235,539,173,-127,-142,69.9779,75.2056,13.4362,1,0
0000994696,5,-0.2694,0.5486,0.3880,0.6899,-1368,-355,489,-1991,183,535,188,-92,-160,67.9459,75.0092,12.0274,1,0
0000994717,5,-0.2673,0.5479,0.3828,0.6941,-1357,-366,506,-1951,99,615,198,-80,-155,65.9196,74.8568,10.6618,1,0
0000994738,5,-0.2649,0.5474,0.3778,0.6981,-1357,-366,506,-2003,27,575,211,-79,-130,64.1341,74.6968,9.5455,1,0
0000994759,5,-0.2613,0.5471,0.3716,0.7031,-1353,-374,524,-2011,43,631,214,-86,-135,62.0866,74.4707,8.3880,1,0
0000994780,5,-0.2595,0.5461,0.3669,0.7070,-1340,-382,536,-1995,99,671,132,-82,-160,60.2678,74.2766,7.1500,1,0
0000994801,5,-0.2600,0.5442,0.3631,0.7102,-1340,-382,536,-1983,159,623,46,-68,-178,58.2447,74.1100,5.4160,1,0
0000994822,5,-0.2614,0.5425,0.3594,0.7129,-1330,-404,548,-2019,175,643,58,-36,-178,56.2359,74.0175,3.6117,1,0
0000994843,5,-0.2614,0.5417,0.3547,0.7158,-1319,-419,553,-1963,167,647,165,-42,-176,54.2930,73.9412,2.0846,1,0
0000994864,5,-0.2601,0.5412,0.3474,0.7203,-1319,-419,553,-1955,195,675,184,-36,-204,51.7048,73.8045,0.2798,1,0
0000994885,5,-0.2601,0.5408,0.3409,0.7236,-1308,-441,562,-1971,207,691,143,-4,-232,49.2762,73.7445,-1.5704,1,0
0000994906,5,-0.2612,0.5408,0.3343,0.7263,-1299,-462,564,-2043,275,643,130,41,-245,46.6665,73.7862,-3.6805,1,0
0000994927,5,-0.2630,0.5420,0.3271,0.7281,-1299,-462,564,-1959,307,715,134,120,-240,43.9166,73.9991,-5.9187,1,0
0000994948,5,-0.2646,0.5445,0.3195,0.7290,-1291,-482,555,-2031,231,711,188,130,-223,41.2210,74.3485,-8.0540,1,0
0000994969,5,-0.2647,0.5476,0.3094,0.7310,-1282,-499,554,-2027,227,663,220,100,-221,37.8921,74.6612,-10.4726,1,0
0000994990,5,-0.2649,0.5492,0.3017,0.7329,-1282,-499,554,-2047,367,787,170,73,-226,35.1555,74.7705,-12.5258,1,0
0000995011,5,-0.2658,0.5503,0.2947,0.7346,-1270,-516,552,-2047,423,771,153,76,-220,32.4863,74.8392,-14.6496,1,0
0000995032,5,-0.2654,0.5525,0.2875,0.7360,-1263,-523,560,-2211,243,419,237,112,-158,30.0920,74.9775,-16.3554,1,0
0000995053,5,-0.2620,0.5566,0.2795,0.7371,-1263,-523,560,-2235,79,-19,384,150,-120,28.2263,75.2656,-17.1969,1,0
0000995074,5,-0.2564,0.5642,0.2680,0.7377,-1258,-518,564,-2147,19,-219,383,246,-100,25.7523,75.8774,-18.1283,1,0
0000995095,5,-0.2530,0.5728,0.2588,0.7354,-1262,-506,541,-1975,-23,-315,342,401,-61,23.4127,76.7871,-19.3172,1,0
0000995116,5,-0.2510,0.5843,0.2494,0.7303,-1262,-506,541,-2687,-347,-203,317,522,-83,20.1919,78.1486,-21.4804,1,0
0000995137,5,-0.2516,0.5963,0.2402,0.7235,-1267,-507,499,-2799,-3,-323,175,591,-76,15.2712,79.6441,-25.6032,1,0
0000995158,5,-0.2540,0.6093,0.2342,0.7137,-1285,-503,439,-2575,39,-423,66,682,36,9.5110,81.3768,-30.9967,1,0
0000995179,5,-0.2562,0.6271,0.2293,0.6990,-1285,-503,439,-2479,439,-667,66,690,125,359.5877,83.7822,-40.6242,1,0
0000995200,5,-0.2568,0.6421,0.2274,0.6856,-1301,-484,374,-2275,887,31,-38,758,240,345.9801,85.7486,-54.0931,1,0
0000995221,5,-0.2587,0.6577,0.2301,0.6689,-1325,-453,295,-2447,863,-115,-112,829,342,311.6080,87.5138,-88.8478,1,0
0000995242,5,-0.2554,0.6779,0.2292,0.6502,-1325,-453,295,-2423,575,227,256,976,443,243.4453,86.9123,-156.6512,1,0
0000995263,5,-0.2455,0.6984,0.2247,0.6336,-1346,-393,224,-2427,435,175,397,825,500,217.2454,84.4786,178.3548,1,0
0000995284,5,-0.2305,0.7210,0.2212,0.6150,-1364,-328,176,-2371,599,75,392,695,573,203.6872,81.3704,166.3253,1,0
0000995305,5,-0.2144,0.7377,0.2181,0.6019,-1364,-328,176,-2435,591,79,537,600,641,196.3426,78.9769,160.5526,1,0
0000995326,5,-0.1953,0.7533,0.2139,0.5905,-1384,-247,152,-2579,243,247,630,519,648,190.4233,76.6949,156.5530,1,0
0000995347,5,-0.1745,0.7683,0.2070,0.5800,-1396,-167,122,-2615,-47,267,745,544,632,185.9969,74.4687,154.4060,1,0
0000995368,5,-0.1530,0.7843,0.1973,0.5679,-1396,-167,122,-2335,-579,-7,808,621,589,182.9532,72.0213,153.9004,1,0
0000995389,5,-0.1278,0.8024,0.1843,0.5530,-1403,-97,84,-2111,-803,-163,703,526,541,180.2101,69.1605,154.2732,1,0
0000995410,5,-0.1103,0.8132,0.1790,0.5427,-1410,-30,54,-2111,-983,-103,439,387,537,177.7898,67.2406,153.6999,1,0
0000995431,5,-0.0977,0.8203,0.1800,0.5341,-1410,-30,54,-2011,-1175,-19,88,299,485,175.5393,65.6887,152.3646,1,0
0000995452,5,-0.0902,0.8248,0.1873,0.5258,-1414,26,32,-1927,-975,-75,-151,260,430,173.6240,64.3092,150.3977,1,0
0000995473,5,-0.0864,0.8282,0.1963,0.5177,-1417,72,7,-1735,-895,-171,-275,258,304,172.3764,63.0595,148.6519,1,0
0000995494,5,-0.0867,0.8308,0.2074,0.5092,-1417,72,7,-1639,-675,-199,-338,187,169,171.8018,61.8854,147.0420,1,0
0000995515,5,-0.0900,0.8308,0.2161,0.5049,-1418,91,-7,-1723,-459,-231,-346,104,53,171.7574,61.3804,145.9372,1,0
0000995536,5,-0.0953,0.8297,0.2224,0.5031,-1419,84,-11,-1803,-443,-175,-317,34,-64,172.1303,61.3044,145.3133,1,0
0000995557,5,-0.1019,0.8275,0.2274,0.5031,-1419,84,-11,-1859,-307,-99,-285,-23,-150,172.7506,61.5234,144.9482,1,0
0000995578,5,-0.1094,0.8246,0.2303,0.5050,-1421,67,-7,-1851,-135,-55,-243,-87,-234,173.6069,62.0325,144.9446,1,0
0000995599,5,-0.1196,0.8197,0.2319,0.5099,-1419,34,2,-1907,51,-167,-179,-151,-306,174.8750,63.0469,145.2558,1,0
0000995620,5,-0.1277,0.8151,0.2303,0.5160,-1419,34,2,-1971,-175,-91,-88,-229,-385,176.1181,64.1526,146.0082,1,0
0000995641,5,-0.1361,0.8092,0.2264,0.5248,-1417,-21,24,-2083,-267,7,-44,-310,-453,177.5918,65.6355,147.1826,1,0
0000995662,5,-0.1454,0.8021,0.2218,0.5351,-1412,-87,52,-2103,-463,219,-69,-380,-531,179.3907,67.3572,148.6773,1,0
0000995683,5,-0.1574,0.7925,0.2181,0.5473,-1412,-87,52,-2063,-303,367,-241,-489,-615,181.7534,69.4182,150.4383,1,0
0000995704,5,-0.1757,0.7764,0.2172,0.5649,-1399,-162,91,-2131,-87,427,-363,-624,-662,185.2272,72.4715,152.5742,1,0
0000995725,5,-0.1920,0.7597,0.2184,0.5817,-1385,-241,150,-2351,-43,503,-424,-776,-718,188.5698,75.3839,154.5526,1,0
0000995746,5,-0.2085,0.7398,0.2203,0.6006,-1385,-241,150,-2555,-183,355,-452,-874,-723,192.9118,78.6625,157.4323,1,0
0000995767,5,-0.2244,0.7183,0.2226,0.6198,-1361,-327,213,-2675,-91,299,-454,-912,-701,199.5296,82.0156,162.5858,1,0
0000995788,5,-0.2386,0.6954,0.2259,0.6391,-1335,-403,285,-2983,79,43,-471,-990,-611,211.9560,85.3140,173.5751,1,0
0000995809,5,-0.2537,0.6660,0.2309,0.6624,-1335,-403,285,-2815,167,-631,-334,-984,-570,281.2317,88.1306,-118.8581,1,0
0000995830,5,-0.2587,0.6467,0.2295,0.6799,-1311,-465,358,-3027,347,-1139,63,-752,-431,338.8878,86.4183,-61.5205,1,0
0000995851,5,-0.2553,0.6366,0.2245,0.6922,-1304,-478,411,-2703,559,-1935,334,-442,-156,350.8660,84.8521,-48.8367,1,0
0000995872,5,-0.2484,0.6319,0.2227,0.6996,-1304,-478,411,-2299,711,-1223,167,-358,71,358.7108,84.1299,-40.2524,1,0
0000995893,5,-0.2448,0.6257,0.2301,0.7040,-1308,-457,441,-2151,871,-771,-295,-323,281,8.9994,83.5426,-30.3138,1,0
0000995914,5,-0.2464,0.6188,0.2486,0.7032,-1308,-457,441,-2243,327,375,-586,-211,293,22.0140,83.1524,-19.0455,1,0
0000995935,5,-0.2581,0.6118,0.2658,0.6989,-1318,-443,436,-2051,-107,203,-909,-93,71,26.8452,82.9054,-16.7249,1,0
0000995956,5,-0.2736,0.6040,0.2822,0.6933,-1322,-464,405,-1987,299,-59,-893,-103,95,28.7284,82.7252,-17.6581,1,0
0000995977,5,-0.2820,0.5956,0.3006,0.6895,-1322,-464,405,-2207,983,323,-644,-322,298,35.6098,82.2391,-13.1593,1,0
0000995998,5,-0.2811,0.5894,0.3157,0.6884,-1332,-448,413,-2307,771,59,-102,-171,369,44.3298,81.4984,-5.7388,1,0
0000996019,5,-0.2711,0.5922,0.3219,0.6871,-1346,-408,425,-2263,539,115,301,-23,272,53.0126,81.2693,3.2713,1,0
0000996040,5,-0.2605,0.5957,0.3197,0.6893,-1351,-378,450,-1907,235,335,413,-95,149,56.6398,81.0176,8.0425,1,0
0000996061,5,-0.2502,0.5974,0.3166,0.6930,-1351,-378,450,-1971,-67,503,377,-150,107,58.4895,80.5635,11.0606,1,0
0000996082,5,-0.2410,0.5983,0.3144,0.6965,-1358,-354,474,-1963,-251,559,309,-131,130,59.9986,80.0545,13.5717,1,0
0000996103,5,-0.2331,0.6003,0.3140,0.6977,-1364,-323,480,-2139,-263,515,205,-10,213,62.5754,79.7283,16.8597,1,0
0000996124,5,-0.2261,0.6043,0.3183,0.6945,-1364,-323,480,-2067,319,319,13,55,312,68.3554,79.5370,22.8759,1,0
0000996145,5,-0.2223,0.6062,0.3245,0.6912,-1380,-288,476,-2027,671,655,-64,13,289,73.0938,79.2195,27.3892,1,0
0000996166,5,-0.2193,0.6084,0.3297,0.6878,-1391,-260,466,-2035,355,723,-8,84,241,77.2499,78.9641,31.3424,1,0
0000996187,5,-0.2162,0.6116,0.3327,0.6845,-1391,-260,466,-2079,-99,835,23,84,211,80.9142,78.8415,35.0040,1,0
0000996208,5,-0.2148,0.6131,0.3372,0.6813,-1401,-237,455,-2059,-55,751,-148,50,190,83.9621,78.6294,37.7698,1,0
0000996229,5,-0.2181,0.6116,0.3467,0.6769,-1408,-225,443,-2075,79,691,-352,7,170,86.7361,78.2932,39.3940,1,0
0000996250,5,-0.2226,0.6086,0.3565,0.6730,-1408,-225,443,-1975,459,491,-443,-14,173,88.6191,77.9388,39.9840,1,0
0000996271,5,-0.2281,0.6048,0.3670,0.6690,-1414,-215,430,-1963,639,431,-448,-20,151,90.2408,77.5773,40.1649,1,0
0000996292,5,-0.2325,0.6016,0.3753,0.6657,-1414,-215,430,-1927,831,291,-318,-9,109,91.4411,77.2946,40.1931,1,0
0000996313,5,-0.2347,0.6003,0.3801,0.6633,-1417,-209,425,-1983,743,171,-133,9,71,92.5208,77.1298,40.6315,1,0
0000996334,5,-0.2347,0.6009,0.3818,0.6619,-1419,-201,419,-2007,559,147,0,35,55,93.5201,77.0701,41.4750,1,0
0000996355,5,-0.2333,0.6025,0.3822,0.6607,-1419,-201,419,-2003,331,251,25,22,65,94.6319,77.0113,42.6744,1,0
0000996376,5,-0.2326,0.6032,0.3839,0.6592,-1424,-195,417,-2027,247,323,-56,31,90,95.7106,76.9027,43.6526,1,0
0000996397,5,-0.2336,0.6034,0.3871,0.6569,-1428,-185,409,-2063,295,275,-151,45,96,97.0251,76.8014,44.5799,1,0
0000996418,5,-0.2363,0.6026,0.3918,0.6538,-1428,-185,409,-2023,375,403,-248,35,90,98.3227,76.7012,45.1982,1,0
0000996439,5,-0.2395,0.6011,0.3972,0.6508,-1435,-179,399,-1999,467,383,-241,27,93,99.4687,76.5707,45.5550,1,0
0000996460,5,-0.2427,0.5996,0.4032,0.6473,-1438,-172,392,-2011,543,443,-197,22,80,100.8058,76.3997,46.0392,1,0
0000996481,5,-0.2448,0.5984,0.4068,0.6453,-1438,-172,392,-1995,515,451,-145,8,44,101.5051,76.3004,46.2019,1,0
0000996502,5,-0.2459,0.5977,0.4087,0.6444,-1440,-169,385,-1995,435,491,-53,-3,18,101.7565,76.2440,46.1747,1,0
0000996523,5,-0.2460,0.5973,0.4092,0.6445,-1438,-170,387,-2047,255,427,1,-24,-9,101.6852,76.2009,46.0515,1,0
0000996544,5,-0.2461,0.5965,0.4091,0.6451,-1438,-170,387,-2055,199,395,-22,-46,-34,101.2122,76.1885,45.5746,1,0
0000996565,5,-0.2471,0.5944,0.4093,0.6466,-1438,-172,393,-2027,303,443,-50,-67,-54,100.0306,76.1512,44.2789,1,0
0000996586,5,-0.2483,0.5921,0.4096,0.6480,-1435,-180,397,-1979,411,443,-60,-70,-63,98.8468,76.1339,42.9488,1,0
0000996607,5,-0.2496,0.5898,0.4099,0.6495,-1435,-180,397,-2027,435,391,-54,-78,-71,97.5770,76.1055,41.5348,1,0
0000996628,5,-0.2506,0.5875,0.4095,0.6514,-1428,-191,407,-2051,427,343,-3,-71,-95,96.1582,76.0859,40.0623,1,0
0000996649,5,-0.2513,0.5859,0.4080,0.6536,-1424,-206,415,-2007,395,435,28,-64,-114,94.6439,76.1386,38.6279,1,0
0000996670,5,-0.2514,0.5836,0.4047,0.6576,-1424,-206,415,-1935,387,607,72,-114,-145,92.0646,76.1720,36.3442,1,0
0000996691,5,-0.2512,0.5809,0.4017,0.6619,-1419,-220,433,-1907,499,647,71,-150,-173,89.4117,76.1193,33.9825,1,0
0000996712,5,-0.2511,0.5773,0.3981,0.6672,-1407,-243,454,-1963,495,747,87,-183,-220,86.0846,75.9987,30.9862,1,0
0000996733,5,-0.2509,0.5736,0.3928,0.6736,-1407,-243,454,-1947,379,683,176,-197,-306,82.1358,75.8965,27.5406,1,0
0000996754,5,-0.2502,0.5697,0.3853,0.6815,-1394,-273,480,-1951,267,671,221,-228,-371,77.3222,75.7526,23.4658,1,0
0000996775,5,-0.2495,0.5641,0.3737,0.6928,-1375,-315,513,-1895,155,663,246,-226,-424,70.3722,75.4665,17.6260,1,0
0000996796,5,-0.2500,0.5595,0.3632,0.7018,-1375,-315,513,-1831,51,679,212,-191,-473,64.4239,75.2192,12.5699,1,0
0000996817,5,-0.2537,0.5547,0.3528,0.7096,-1352,-365,541,-1799,223,703,73,-97,-515,58.2398,75.0600,6.9825,1,0
0000996838,5,-0.2610,0.5514,0.3436,0.7140,-1332,-419,536,-2075,299,631,-4,85,-427,52.4622,75.1813,1.3828,1,0
0000996859,5,-0.2663,0.5515,0.3345,0.7163,-1332,-419,536,-2291,239,179,213,144,-320,47.8446,75.5079,-2.8760,1,0
0000996880,5,-0.2658,0.5564,0.3214,0.7187,-1318,-449,533,-2359,235,175,370,177,-194,43.6430,76.0647,-5.8100,1,0
0000996901,5,-0.2614,0.5619,0.3121,0.7201,-1316,-451,528,-2175,203,219,391,134,-101,41.8559,76.5087,-6.3430,1,0
0000996922,5,-0.2582,0.5664,0.3054,0.7206,-1316,-451,528,-2163,211,271,216,137,-71,40.6653,76.9094,-6.6314,1,0
0000996943,5,-0.2581,0.5697,0.3014,0.7197,-1313,-450,527,-2115,187,259,48,146,-58,39.5533,77.3165,-7.3629,1,0
0000996964,5,-0.2596,0.5727,0.2990,0.7178,-1311,-454,514,-2139,239,167,19,187,-30,38.5981,77.7959,-8.2168,1,0
0000996985,5,-0.2609,0.5782,0.2963,0.7140,-1311,-454,514,-2171,251,51,63,243,20,37.8926,78.6063,-8.7584,1,0
0000997006,5,-0.2604,0.5848,0.2941,0.7098,-1318,-449,492,-2107,207,-75,117,298,83,38.2735,79.4957,-8.0996,1,0
0000997027,5,-0.2585,0.5932,0.2919,0.7043,-1325,-433,464,-2107,127,-87,152,361,139,39.7266,80.5918,-6.2471,1,0
0000997048,5,-0.2567,0.6027,0.2897,0.6978,-1325,-433,464,-2167,-43,-27,120,417,143,41.9585,81.8337,-3.6198,1,0
0000997069,5,-0.2569,0.6126,0.2878,0.6898,-1341,-414,428,-2267,-147,11,16,504,107,44.5347,83.2602,-0.8613,1,0
0000997090,5,-0.2603,0.6259,0.2859,0.6773,-1354,-403,367,-2339,-15,-51,-44,598,117,49.2205,85.3448,3.7358,1,0
0000997111,5,-0.2633,0.6380,0.2845,0.6653,-1354,-403,367,-2303,207,587,0,627,153,60.7327,87.1980,15.1379,1,0
0000997132,5,-0.2633,0.6485,0.2824,0.6560,-1364,-390,309,-2331,439,499,126,435,139,91.2626,88.3442,45.8608,1,0
0000997153,5,-0.2599,0.6579,0.2784,0.6497,-1371,-369,277,-2219,767,271,274,379,157,136.3694,88.3603,91.6250,1,0
0000997174,5,-0.2530,0.6679,0.2733,0.6444,-1371,-369,277,-2159,803,255,440,281,211,161.1486,87.4845,117.4378,1,0
0000997195,5,-0.2394,0.6790,0.2646,0.6415,-1375,-340,271,-2163,731,159,575,183,217,166.9356,86.3371,125.1544,1,0
0000997216,5,-0.2255,0.6883,0.2555,0.6405,-1380,-304,279,-2183,583,-7,726,210,223,167.7813,85.4255,127.9867,1,0
0000997237,5,-0.2089,0.6998,0.2429,0.6385,-1380,-304,279,-2275,331,239,872,307,249,169.6006,84.3177,132.2947,1,0
0000997258,5,-0.1912,0.7120,0.2289,0.6357,-1382,-263,280,-2259,155,91,877,310,248,171.0010,83.0991,136.3753,1,0
0000997279,5,-0.1736,0.7242,0.2151,0.6318,-1389,-215,271,-2291,79,-455,867,425,312,171.8323,81.7826,139.8407,1,0
0000997300,5,-0.1504,0.7413,0.2002,0.6227,-1389,-215,271,-2471,47,-451,763,450,423,171.6259,79.5700,142.7902,1,0
0000997321,5,-0.1333,0.7534,0.1933,0.6143,-1398,-153,253,-2391,-83,-315,570,421,457,170.0991,77.7026,143.2425,1,0
0000997342,5,-0.1181,0.7641,0.1890,0.6053,-1407,-87,221,-2419,-211,-291,473,419,442,168.6023,75.8764,143.3224,1,0
0000997363,5,-0.1052,0.7741,0.1859,0.5959,-1407,-87,221,-2447,-491,-91,365,422,402,167.6428,74.0937,143.6540,1,0
0000997384,5,-0.0951,0.7833,0.1837,0.5862,-1413,-36,185,-2335,-719,-135,267,465,321,167.3030,72.4244,144.2936,1,0
0000997405,5,-0.0853,0.7951,0.1820,0.5722,-1423,4,140,-2151,-559,-191,199,503,307,167.6195,70.2146,145.4974,1,0
0000997426,5,-0.0799,0.8032,0.1829,0.5613,-1423,4,140,-2127,-543,-123,25,435,278,167.8342,68.5656,146.0297,1,0
0000997447,5,-0.0782,0.8089,0.1876,0.5517,-1425,35,100,-2043,-571,-111,-160,361,204,168.0168,67.1966,145.9065,1,0
0000997468,5,-0.0796,0.8130,0.1937,0.5432,-1431,55,64,-1955,-615,-155,-245,330,139,168.4834,66.0935,145.6972,1,0
0000997489,5,-0.0831,0.8164,0.1994,0.5356,-1431,55,64,-1935,-619,-227,-262,305,57,169.2991,65.1786,145.6991,1,0
0000997510,5,-0.0901,0.8196,0.2056,0.5272,-1433,58,28,-1979,-607,-247,-278,265,-62,170.8151,64.3093,146.0482,1,0
0000997531,5,-0.0983,0.8208,0.2093,0.5223,-1435,45,-2,-1951,-579,-183,-310,208,-168,172.5082,63.9733,146.7112,1,0
0000997552,5,-0.1088,0.8208,0.2128,0.5188,-1435,45,-2,-1931,-543,-43,-344,158,-259,174.4915,63.8993,147.4872,1,0
0000997573,5,-0.1214,0.8194,0.2160,0.5168,-1437,11,-23,-1939,-439,35,-397,110,-329,176.8112,64.0904,148.4692,1,0
0000997594,5,-0.1357,0.8166,0.2196,0.5162,-1435,-33,-42,-1911,-279,135,-440,51,-388,179.3197,64.5146,149.4628,1,0
0000997615,5,-0.1554,0.8109,0.2249,0.5174,-1435,-33,-42,-1883,-111,243,-492,-56,-462,182.6513,65.3701,150.6924,1,0
0000997636,5,-0.1728,0.8036,0.2299,0.5211,-1433,-83,-51,-1907,11,283,-564,-167,-518,185.4787,66.4833,151.6615,1,0
0000997657,5,-0.1912,0.7940,0.2362,0.5266,-1426,-143,-48,-1963,139,271,-610,-274,-558,188.3929,67.8931,152.5266,1,0
0000997678,5,-0.2097,0.7821,0.2427,0.5342,-1426,-143,-48,-1931,275,231,-612,-366,-576,191.4000,69.6266,153.4648,1,0
0000997699,5,-0.2274,0.7687,0.2496,0.5433,-1419,-203,-27,-2027,479,175,-584,-486,-556,194.3717,71.5679,154.4129,1,0
0000997720,5,-0.2468,0.7499,0.2575,0.5572,-1412,-261,4,-2235,539,139,-508,-589,-555,197.9227,74.3151,155.7213,1,0
0000997741,5,-0.2601,0.7327,0.2628,0.5714,-1412,-261,4,-2371,611,155,-424,-735,-566,200.8777,76.8942,157.1833,1,0
0000997762,5,-0.2712,0.7132,0.2680,0.5883,-1402,-319,62,-2415,619,19,-404,-880,-542,203.9565,79.8651,158.9505,1,0
0000997783,5,-0.2801,0.6921,0.2737,0.6063,-1389,-376,143,-2435,427,-315,-334,-916,-499,207.3318,83.0212,161.1321,1,0
0000997804,5,-0.2859,0.6732,0.2770,0.6232,-1389,-376,143,-2491,375,-623,-94,-764,-405,213.5243,85.8863,166.5826,1,0
0000997825,5,-0.2865,0.6557,0.2753,0.6420,-1377,-419,211,-2431,455,-919,175,-617,-293,242.5617,88.5628,-164.2530,1,0
0000997846,5,-0.2809,0.6469,0.2714,0.6550,-1365,-438,276,-2283,551,-935,336,-536,-140,333.4217,88.9909,-72.5512,1,0
0000997867,5,-0.2729,0.6402,0.2691,0.6658,-1365,-438,276,-2003,819,-623,274,-478,-13,14.0058,87.9101,-31.0674,1,0
0000997888,5,-0.2665,0.6333,0.2716,0.6739,-1364,-433,333,-2339,483,-175,-8,-464,104,29.5611,86.6818,-15.1879,1,0
0000997909,5,-0.2666,0.6234,0.2807,0.6794,-1359,-432,365,-2675,-107,-407,-530,-403,-1,36.8855,85.3205,-8.6869,1,0
0000997930,5,-0.2789,0.6113,0.2976,0.6782,-1359,-432,365,-2031,763,-475,-790,-140,93,39.6662,84.3639,-8.5092,1,0
0000997951,5,-0.2876,0.6033,0.3154,0.6737,-1364,-437,353,-2551,1223,-179,-690,-269,269,46.8440,83.8700,-3.7071,1,0
0000997972,5,-0.2881,0.5983,0.3297,0.6710,-1373,-409,360,-2971,699,-639,-215,-134,320,55.7627,83.2057,3.8607,1,0
0000997993,5,-0.2817,0.6017,0.3328,0.6693,-1373,-409,360,-1679,539,623,262,15,245,62.8918,83.1265,11.2891,1,0
0000998014,5,-0.2724,0.6027,0.3328,0.6722,-1383,-382,381,-1691,543,895,256,-261,92,66.3590,82.5369,15.5702,1,0
0000998035,5,-0.2626,0.6013,0.3300,0.6787,-1378,-369,416,-1899,83,779,335,-169,10,65.8500,81.6788,16.1648,1,0
0000998056,5,-0.2540,0.6027,0.3254,0.6829,-1378,-369,416,-2067,-491,803,409,-96,74,65.9252,81.2884,17.4003,1,0
0000998077,5,-0.2439,0.6057,0.3214,0.6858,-1382,-349,439,-2075,-499,759,411,-51,154,67.6888,80.9627,20.4124,1,0
0000998098,5,-0.2348,0.6084,0.3189,0.6878,-1383,-320,457,-2083,-311,727,291,-79,131,69.8215,80.6141,23.5590,1,0
0000998119,5,-0.2287,0.6088,0.3177,0.6900,-1383,-320,457,-2071,83,551,149,-86,77,70.4551,80.2208,24.8202,1,0
0000998140,5,-0.2235,0.6091,0.3182,0.6912,-1390,-304,467,-2135,367,431,71,-49,120,71.7103,79.8352,26.4733,1,0
0000998161,5,-0.2204,0.6092,0.3211,0.6908,-1394,-289,474,-2019,691,539,-17,-64,161,73.5842,79.4785,28.3581,1,0
0000998182,5,-0.2181,0.6086,0.3251,0.6902,-1394,-289,474,-2091,623,483,-39,-56,137,75.4020,79.0809,30.0075,1,0
0000998203,5,-0.2162,0.6088,0.3271,0.6897,-1397,-275,478,-2043,367,431,29,-4,81,76.5847,78.8604,31.1773,1,0
0000998224,5,-0.2144,0.6097,0.3278,0.6891,-1403,-262,475,-2031,75,467,33,8,81,77.6439,78.7659,32.3307,1,0
0000998245,5,-0.2122,0.6105,0.3295,0.6882,-1403,-262,475,-2019,-15,543,-11,-8,101,79.1448,78.5775,33.8600,1,0
0000998266,5,-0.2120,0.6102,0.3328,0.6870,-1406,-247,476,-2031,119,439,-121,-1,108,80.3552,78.3835,34.7960,1,0
0000998287,5,-0.2138,0.6090,0.3375,0.6852,-1409,-244,472,-2063,411,371,-213,-12,79,81.4479,78.2069,35.2942,1,0
0000998308,5,-0.2164,0.6072,0.3420,0.6837,-1409,-244,472,-1999,519,435,-183,-18,51,82.0400,78.0627,35.2516,1,0
0000998329,5,-0.2179,0.6056,0.3452,0.6831,-1410,-239,466,-1991,443,451,-89,-59,24,82.2689,77.9044,35.0658,1,0
0000998350,5,-0.2185,0.6035,0.3472,0.6838,-1406,-243,474,-2059,283,359,-49,-62,-1,81.7850,77.6798,34.3370,1,0
0000998371,5,-0.2193,0.6020,0.3481,0.6844,-1406,-243,474,-2067,299,343,-59,-43,-23,81.1946,77.5893,33.5951,1,0
0000998392,5,-0.2207,0.6005,0.3491,0.6847,-1406,-242,476,-2003,299,411,-84,-34,-17,80.6667,77.5359,32.8412,1,0
0000998413,5,-0.2224,0.5992,0.3506,0.6846,-1407,-248,475,-1999,291,487,-100,-15,-4,80.3897,77.4909,32.2831,1,0
0000998434,5,-0.2245,0.5977,0.3527,0.6841,-1407,-248,475,-2047,323,403,-135,-21,3,80.2665,77.4476,31.7863,1,0
0000998455,5,-0.2274,0.5960,0.3556,0.6831,-1406,-252,473,-2039,335,427,-129,2,9,80.3032,77.4091,31.2945,1,0
0000998476,5,-0.2293,0.5949,0.3576,0.6823,-1407,-255,469,-2031,331,399,-104,-5,7,80.4287,77.3958,31.0689,1,0
0000998497,5,-0.2313,0.5937,0.3595,0.6817,-1407,-255,469,-2011,343,467,-121,-10,-2,80.3922,77.3737,30.6884,1,0
0000998518,5,-0.2336,0.5922,0.3614,0.6813,-1407,-264,467,-2031,315,523,-123,-20,-19,80.1639,77.3557,30.0763,1,0
0000998539,5,-0.2358,0.5905,0.3626,0.6814,-1410,-268,470,-2039,259,543,-79,-34,-42,79.5735,77.3346,29.1870,1,0
0000998560,5,-0.2372,0.5890,0.3626,0.6822,-1410,-268,470,-1995,223,427,-49,-30,-67,78.6272,77.3123,28.1080,1,0
0000998581,5,-0.2397,0.5871,0.3625,0.6830,-1405,-279,468,-2023,215,407,-76,-26,-66,77.3804,77.3482,26.6417,1,0
0000998602,5,-0.2419,0.5852,0.3629,0.6836,-1402,-287,472,-1991,271,495,-88,-42,-60,76.3671,77.3343,25.3984,1,0
0000998623,5,-0.2442,0.5830,0.3638,0.6842,-1402,-287,472,-2043,251,487,-106,-45,-52,75.4276,77.2791,24.1650,1,0
0000998644,5,-0.2467,0.5811,0.3647,0.6844,-1398,-298,471,-2035,231,479,-103,-25,-56,74.5726,77.2633,23.0025,1,0
0000998665,5,-0.2493,0.5792,0.3654,0.6848,-1394,-308,470,-2027,271,483,-118,-30,-72,73.6266,77.2575,21.7581,1,0
0000998686,5,-0.2538,0.5762,0.3663,0.6851,-1394,-308,470,-2011,319,503,-161,-23,-99,72.1039,77.2818,19.7381,1,0
0000998707,5,-0.2590,0.5732,0.3673,0.6851,-1389,-326,471,-1999,463,431,-213,-8,-123,70.5205,77.3521,17.5992,1,0
0000998728,5,-0.2650,0.5703,0.3684,0.6847,-1381,-347,464,-2059,535,447,-211,5,-130,68.8845,77.4778,15.3302,1,0
0000998749,5,-0.2700,0.5680,0.3683,0.6847,-1381,-347,464,-1955,447,531,-93,17,-152,67.1447,77.6109,13.1425,1,0
0000998770,5,-0.2737,0.5666,0.3660,0.6857,-1373,-369,460,-1939,443,599,-4,8,-200,64.8453,77.7678,10.7247,1,0
0000998791,5,-0.2775,0.5647,0.3604,0.6886,-1363,-398,465,-1831,567,871,45,-14,-268,60.7529,77.8956,6.8007,1,0
0000998812,5,-0.2801,0.5632,0.3544,0.6919,-1363,-398,465,-2091,551,811,98,-5,-281,56.8098,77.9351,3.1665,1,0
0000998833,5,-0.2816,0.5640,0.3464,0.6947,-1350,-428,467,-2007,295,395,234,124,-264,52.8659,78.1530,-0.1621,1,0
0000998854,5,-0.2809,0.5694,0.3351,0.6961,-1345,-443,460,-2047,199,195,440,263,-206,49.1457,78.8170,-2.7609,1,0
0000998875,5,-0.2769,0.5771,0.3225,0.6973,-1345,-443,460,-2059,311,159,547,249,-148,45.9361,79.5697,-4.4431,1,0
0000998896,5,-0.2692,0.5880,0.3061,0.6986,-1343,-443,454,-2055,315,127,570,281,-131,42.5128,80.5381,-5.6696,1,0
0000998917,5,-0.2642,0.5973,0.2931,0.6982,-1341,-444,444,-2199,235,115,495,348,-142,39.2403,81.4939,-7.3141,1,0
0000998938,5,-0.2611,0.6070,0.2804,0.6963,-1341,-444,444,-2315,103,87,433,410,-147,34.7441,82.5903,-10.3846,1,0
0000998959,5,-0.2593,0.6174,0.2683,0.6925,-1342,-446,415,-2483,-79,-35,363,504,-107,28.7589,83.8684,-15.1237,1,0
0000998980,5,-0.2582,0.6291,0.2576,0.6864,-1346,-442,370,-2615,-31,-231,288,605,-17,20.8122,85.3552,-22.0076,1,0
0000999001,5,-0.2571,0.6467,0.2475,0.6742,-1346,-442,370,-2551,31,-459,240,712,105,1.7460,87.6412,-40.0676,1,0
0000999022,5,-0.2550,0.6623,0.2413,0.6620,-1359,-423,303,-2335,-31,-259,215,727,178,289.2282,88.8922,-111.8580,1,0
0000999043,5,-0.2531,0.6760,0.2377,0.6499,-1372,-396,247,-2263,335,-131,102,612,215,230.7465,87.5460,-169.8768,1,0
0000999064,5,-0.2507,0.6881,0.2370,0.6384,-1372,-396,247,-2187,455,-207,102,564,294,215.6636,85.8241,175.2925,1,0
0000999085,5,-0.2465,0.7004,0.2360,0.6268,-1382,-361,195,-2067,375,-227,154,570,321,208.0744,83.9720,168.1155,1,0
0000999106,5,-0.2396,0.7158,0.2353,0.6123,-1392,-320,154,-2147,711,-199,147,520,379,202.0356,81.5982,162.6828,1,0
0000999127,5,-0.2320,0.7267,0.2365,0.6018,-1392,-320,154,-2075,743,-15,152,411,436,197.4028,79.8587,158.5521,1,0
0000999148,5,-0.2221,0.7365,0.2367,0.5935,-1405,-268,126,-2103,547,235,333,333,418,193.2144,78.3330,155.1504,1,0
0000999169,5,-0.2083,0.7472,0.2311,0.5873,-1408,-220,111,-2095,179,95,647,360,382,190.1367,76.8819,153.6867,1,0
0000999190,5,-0.1924,0.7589,0.2214,0.5815,-1408,-220,111,-1991,55,39,707,324,382,187.8663,75.3967,153.5522,1,0
0000999211,5,-0.1706,0.7714,0.2095,0.5761,-1417,-171,105,-2079,-283,151,694,227,420,184.4900,73.8073,152.9911,1,0
0000999232,5,-0.1534,0.7795,0.2017,0.5728,-1415,-115,99,-2083,-555,107,573,184,416,181.5618,72.7357,152.1324,1,0
0000999253,5,-0.1389,0.7859,0.1976,0.5692,-1415,-115,99,-1971,-515,23,392,135,390,178.7873,71.7313,150.8940,1,0
0000999274,5,-0.1273,0.7897,0.1964,0.5671,-1416,-66,100,-1927,-247,-43,215,8,331,176.1754,71.0268,149.3416,1,0
0000999295,5,-0.1179,0.7915,0.1971,0.5663,-1416,-29,108,-1959,-231,-91,170,-34,264,173.6972,70.5674,147.5777,1,0
0000999316,5,-0.1081,0.7926,0.1965,0.5670,-1416,-29,108,-2019,-367,-167,197,-54,201,171.2341,70.2717,145.9712,1,0
0000999337,5,-0.1012,0.7931,0.1947,0.5683,-1413,-7,124,-2119,-427,-127,215,-85,137,169.6679,70.1711,145.1436,1,0
0000999358,5,-0.0957,0.7926,0.1918,0.5708,-1412,8,136,-2155,-359,-75,192,-121,62,168.4676,70.3210,144.6513,1,0
0000999379,5,-0.0918,0.7914,0.1880,0.5744,-1412,8,136,-2195,-295,-19,197,-152,-17,167.6579,70.6814,144.5005,1,0
0000999400,5,-0.0894,0.7893,0.1831,0.5792,-1408,5,159,-2175,-375,-39,200,-222,-134,167.2365,71.2736,144.7134,1,0
0000999421,5,-0.0887,0.7849,0.1750,0.5877,-1403,-17,183,-2131,-555,-67,192,-285,-214,167.2566,72.4856,145.5021,1,0
0000999442,5,-0.0900,0.7801,0.1682,0.5958,-1403,-17,183,-2175,-651,-31,147,-331,-282,167.6308,73.7217,146.3722,1,0
0000999463,5,-0.0936,0.7742,0.1617,0.6047,-1400,-52,221,-2227,-667,-43,60,-351,-339,168.6051,75.1591,147.6235,1,0
0000999484,5,-0.0994,0.7674,0.1563,0.6139,-1392,-97,256,-2383,-575,-27,-19,-376,-373,170.1373,76.7070,149.1608,1,0
0000999505,5,-0.1068,0.7594,0.1524,0.6234,-1392,-97,256,-2443,-603,47,-128,-427,-408,172.0822,78.3587,150.8514,1,0
0000999526,5,-0.1194,0.7474,0.1498,0.6361,-1384,-154,297,-2379,-711,187,-269,-465,-444,175.7008,80.6402,153.6826,1,0
0000999547,5,-0.1330,0.7359,0.1514,0.6463,-1372,-217,333,-2303,-559,291,-469,-512,-454,180.0022,82.5830,156.7474,1,0
0000999568,5,-0.1497,0.7223,0.1573,0.6566,-1372,-217,333,-2423,-411,167,-676,-559,-429,185.9769,84.6460,160.8757,1,0
0000999589,5,-0.1688,0.7079,0.1668,0.6652,-1357,-288,361,-2451,-207,-11,-801,-502,-397,196.4632,86.5366,168.9984,1,0
0000999610,5,-0.1864,0.6945,0.1766,0.6722,-1348,-345,381,-2391,123,-311,-632,-419,-277,218.6483,88.0259,-171.0975,1,0
0000999631,5,-0.2012,0.6819,0.1870,0.6779,-1348,-345,381,-2323,311,-359,-489,-294,-124,270.1329,88.8067,-121.7301,1,0
0000999652,5,-0.2104,0.6750,0.1969,0.6792,-1345,-376,381,-2207,579,-455,-559,-194,-18,303.9997,88.8528,-89.4749,1,0
0000999673,5,-0.2210,0.6695,0.2100,0.6774,-1351,-388,361,-1887,699,-127,-725,-70,65,323.6717,88.9023,-71.8184,1,0
0000999694,5,-0.2345,0.6651,0.2271,0.6716,-1351,-388,361,-1719,499,215,-923,10,102,330.2689,89.2095,-67.8337,1,0
0000999715,5,-0.2508,0.6590,0.2475,0.6645,-1364,-398,317,-1751,459,423,-1122,-67,135,349.4391,89.4724,-51.8223,1,0
0000999736,5,-0.2706,0.6475,0.2772,0.6562,-1371,-394,293,-2247,371,383,-1112,-223,197,59.7530,89.1179,14.1681,1,0
0000999757,5,-0.2823,0.6367,0.3003,0.6518,-1371,-394,293,-2819,567,-391,-905,-276,233,74.4227,88.1000,25.7675,1,0
0000999778,5,-0.2872,0.6313,0.3165,0.6472,-1384,-377,283,-3199,739,-1027,-423,-21,294,86.8732,87.2982,36.3199,1,0
0000999799,5,-0.2870,0.6342,0.3229,0.6412,-1398,-350,266,-1439,727,91,-63,149,202,104.5235,87.0372,53.4106,1,0
0000999820,5,-0.2849,0.6335,0.3267,0.6409,-1398,-350,266,-1495,523,611,-145,-323,81,105.5998,86.5531,54.3250,1,0
0000999841,5,-0.2854,0.6238,0.3362,0.6452,-1398,-350,295,-1903,-35,539,-321,-317,8,93.2122,85.5303,41.0132,1,0
0000999862,5,-0.2884,0.6171,0.3445,0.6460,-1401,-344,308,-2215,-103,127,-339,-192,102,89.3999,84.8854,36.1706,1,0
0000999883,5,-0.2889,0.6122,0.3538,0.6455,-1401,-344,308,-2011,299,43,-253,-219,194,89.9035,84.0879,35.7723,1,0
0000999904,5,-0.2857,0.6086,0.3610,0.6463,-1405,-326,323,-2087,807,215,-38,-226,173,90.7102,83.1791,36.1861,1,0
0000999925,5,-0.2811,0.6065,0.3635,0.6488,-1407,-320,351,-2047,743,355,95,-188,34,89.9966,82.4875,35.6411,1,0
0000999946,5,-0.2764,0.6036,0.3634,0.6537,-1407,-320,351,-2011,519,291,118,-212,-28,87.0183,81.8617,33.0788,1,0
0000999967,5,-0.2720,0.6009,0.3626,0.6583,-1405,-318,376,-1963,299,275,146,-223,7,84.3797,81.3034,30.8919,1,0
0000999988,5,-0.2670,0.5989,0.3628,0.6621,-1401,-313,405,-2011,511,407,124,-205,64,83.1349,80.6961,30.0581,1,0
0001000009,5,-0.2609,0.5973,0.3628,0.6660,-1401,-313,405,-1955,595,787,228,-213,50,82.2868,80.0218,29.7360,1,0
0001000030,5,-0.2530,0.5976,0.3587,0.6710,-1400,-302,434,-1943,499,839,414,-140,-38,80.9314,79.5607,29.4426,1,0
0001000051,5,-0.2431,0.5987,0.3503,0.6780,-1393,-300,466,-1979,319,811,420,-162,-81,78.4294,79.1799,28.5669,1,0
0001000072,5,-0.2358,0.5988,0.3433,0.6841,-1393,-300,466,-2067,171,575,392,-163,-93,75.8764,78.8594,27.2832,1,0
0001000093,5,-0.2293,0.5986,0.3368,0.6896,-1384,-296,493,-2043,167,503,339,-154,-97,73.4737,78.5665,26.0240,1,0
0001000114,5,-0.2243,0.5979,0.3312,0.6947,-1376,-298,520,-2035,147,491,269,-142,-100,71.1236,78.2900,24.6105,1,0
0001000135,5,-0.2206,0.5970,0.3264,0.6988,-1376,-298,520,-2079,215,323,182,-103,-104,68.9876,78.0752,23.2138,1,0
0001000156,5,-0.2180,0.5958,0.3217,0.7028,-1368,-304,536,-2075,283,291,139,-83,-95,66.6581,77.9064,21.5244,1,0
0001000177,5,-0.2160,0.5952,0.3183,0.7056,-1361,-312,552,-2067,291,327,149,-82,-75,65.1689,77.7775,20.5056,1,0
0001000198,5,-0.2137,0.5942,0.3154,0.7083,-1361,-312,552,-2047,263,395,121,-92,-64,63.8212,77.5924,19.6067,1,0
0001000219,5,-0.2125,0.5931,0.3136,0.7105,-1357,-309,560,-2063,235,311,54,-74,-49,62.7209,77.4173,18.7613,1,0
0001000240,5,-0.2117,0.5923,0.3125,0.7119,-1352,-314,568,-2043,211,367,56,-38,-27,62.0021,77.3017,18.2051,1,0
0001000261,5,-0.2103,0.5921,0.3109,0.7131,-1352,-314,568,-2043,243,403,79,-27,-20,61.4771,77.2202,17.9419,1,0
0001000282,5,-0.2086,0.5921,0.3091,0.7144,-1353,-315,576,-2043,183,539,106,-39,-29,61.0106,77.1433,17.7824,1,0
0001000303,5,-0.2070,0.5920,0.3069,0.7159,-1348,-316,582,-2059,67,583,98,-31,-43,60.3589,77.0753,17.4586,1,0
0001000324,5,-0.2060,0.5921,0.3048,0.7169,-1348,-316,582,-2011,-15,627,82,-6,-38,59.7076,77.0711,17.0757,1,0
0001000345,5,-0.2049,0.5926,0.3032,0.7176,-1345,-317,588,-1987,71,599,66,-3,-11,59.3583,77.0853,16.9652,1,0
0001000366,5,-0.2037,0.5928,0.3020,0.7182,-1344,-317,591,-2003,107,715,46,-14,-5,59.1800,77.0606,16.9935,1,0
0001000387,5,-0.2033,0.5925,0.3013,0.7189,-1344,-317,591,-2031,127,719,18,-24,-28,58.8548,77.0132,16.7674,1,0
0001000408,5,-0.2038,0.5917,0.3006,0.7197,-1339,-320,595,-2019,127,667,-2,-30,-54,58.1254,76.9658,16.0543,1,0
0001000429,5,-0.2048,0.5906,0.2997,0.7207,-1336,-324,598,-1983,151,579,-11,-28,-71,57.1334,76.9296,15.0469,1,0
0001000450,5,-0.2061,0.5895,0.2986,0.7217,-1336,-324,598,-1991,227,563,-22,-37,-81,56.0322,76.9034,13.9238,1,0
0001000471,5,-0.2079,0.5878,0.2973,0.7231,-1329,-334,602,-2011,335,615,-14,-39,-86,54.5238,76.8280,12.3664,1,0
0001000492,5,-0.2087,0.5869,0.2955,0.7243,-1320,-344,606,-2007,323,615,47,-26,-93,53.3072,76.7981,11.2343,1,0
0001000513,5,-0.2086,0.5866,0.2923,0.7259,-1320,-344,606,-1995,227,571,103,-12,-114,51.8823,76.8022,10.1055,1,0
0001000534,5,-0.2084,0.5867,0.2880,0.7276,-1319,-353,610,-1999,163,571,121,-4,-141,50.1433,76.8540,8.7657,1,0
0001000555,5,-0.2089,0.5863,0.2836,0.7295,-1310,-366,616,-2063,195,563,47,-16,-166,48.0692,76.8831,7.0242,1,0
0001000576,5,-0.2116,0.5850,0.2791,0.7315,-1310,-366,616,-2119,239,543,13,-9,-179,45.1624,76.9035,4.2799,1,0
0001000597,5,-0.2139,0.5841,0.2749,0.7331,-1304,-388,616,-1971,203,711,48,0,-196,42.6355,76.9307,1.9111,1,0
0001000618,5,-0.2161,0.5830,0.2702,0.7351,-1293,-409,619,-1951,187,755,44,-27,-215,39.8193,76.8875,-0.6761,1,0
0001000639,5,-0.2188,0.5813,0.2657,0.7373,-1293,-409,619,-1995,351,851,12,-20,-220,36.9224,76.7767,-3.4337,1,0
0001000660,5,-0.2220,0.5805,0.2615,0.7385,-1283,-433,619,-2119,295,631,23,71,-185,34.1649,76.7717,-6.1000,1,0
0001000681,5,-0.2249,0.5835,0.2553,0.7374,-1283,-443,604,-2035,51,423,98,225,-137,31.1502,77.2561,-8.8100,1,0
0001000702,5,-0.2261,0.5894,0.2502,0.7341,-1283,-443,604,-2107,-195,95,114,318,-53,29.2301,78.0964,-10.3517,1,0
0001000723,5,-0.2266,0.5971,0.2464,0.7290,-1290,-435,569,-2095,-203,-135,79,391,23,28.1441,79.1802,-11.1162,1,0
0001000744,5,-0.2288,0.6061,0.2447,0.7214,-1305,-429,527,-2139,-179,-95,-56,470,63,27.4734,80.5587,-11.7802,1,0
0001000765,5,-0.2339,0.6149,0.2459,0.7119,-1305,-429,527,-2399,-223,-167,-266,512,90,26.9703,82.0715,-12.7962,1,0
0001000786,5,-0.2435,0.6261,0.2498,0.6974,-1327,-424,450,-2679,-335,-399,-298,592,91,25.5033,84.2048,-15.3737,1,0
0001000807,5,-0.2509,0.6373,0.2519,0.6837,-1347,-417,368,-2739,-203,-611,-235,699,129,22.0868,86.2445,-19.5831,1,0
0001000828,5,-0.2566,0.6511,0.2531,0.6679,-1347,-417,368,-2695,23,-727,-177,820,201,9.3885,88.6134,-32.8691,1,0
0001000849,5,-0.2615,0.6667,0.2547,0.6498,-1368,-399,271,-2427,515,-535,-198,867,258,223.1546,88.5205,-179.6669,1,0
0001000870,5,-0.2656,0.6820,0.2572,0.6310,-1388,-369,173,-2367,683,-339,-149,834,305,211.0240,85.8176,167.5998,1,0
0001000891,5,-0.2676,0.7011,0.2582,0.6085,-1388,-369,173,-2415,331,-255,-24,835,284,207.6648,82.4503,163.9129,1,0
0001000912,5,-0.2686,0.7166,0.2565,0.5904,-1396,-344,82,-2271,227,-167,-16,864,262,207.3633,79.7115,163.5810,1,0
0001000933,5,-0.2691,0.7307,0.2563,0.5727,-1405,-308,6,-2219,463,-123,-62,734,323,206.5901,77.1317,162.6826,1,0
0001000954,5,-0.2672,0.7424,0.2586,0.5572,-1405,-308,6,-1871,599,-115,-36,594,386,204.6631,74.9343,160.6132,1,0
0001000975,5,-0.2623,0.7533,0.2598,0.5443,-1407,-263,-46,-1803,451,79,134,438,388,202.5933,73.0063,158.7601,1,0
0001000996,5,-0.2549,0.7626,0.2592,0.5351,-1410,-224,-67,-1763,271,175,220,336,363,200.5093,71.4872,157.2841,1,0
0001001017,5,-0.2430,0.7728,0.2557,0.5276,-1410,-224,-67,-1803,39,259,339,239,346,198.0289,70.0106,156.0611,1,0
0001001038,5,-0.2325,0.7801,0.2515,0.5236,-1417,-190,-76,-1739,79,263,365,189,321,196.1464,69.0398,155.4130,1,0
0001001059,5,-0.2227,0.7859,0.2475,0.5211,-1421,-163,-73,-1707,99,195,327,97,271,194.4226,68.3251,154.8494,1,0
0001001080,5,-0.2135,0.7897,0.2439,0.5208,-1421,-163,-73,-1731,0,191,318,-41,199,192.7768,67.9376,154.2958,1,0
0001001101,5,-0.2049,0.7916,0.2401,0.5233,-1424,-143,-55,-1755,-107,99,310,-102,160,191.2296,67.9371,153.8332,1,0
0001001122,5,-0.1950,0.7919,0.2357,0.5285,-1426,-132,-23,-1787,-179,51,280,-209,115,189.2743,68.2792,153.1389,1,0
0001001143,5,-0.1877,0.7902,0.2327,0.5350,-1426,-132,-23,-1891,-251,-23,248,-283,85,187.6160,68.8872,152.4156,1,0
0001001164,5,-0.1811,0.7872,0.2295,0.5430,-1426,-124,19,-2099,-307,-55,254,-339,38,185.9365,69.7143,151.6329,1,0
0001001185,5,-0.1749,0.7837,0.2254,0.5518,-1424,-121,64,-2143,-339,-55,289,-377,-47,184.4055,70.6815,151.0314,1,0
0001001206,5,-0.1699,0.7791,0.2197,0.5620,-1424,-121,64,-2119,-383,-35,285,-400,-98,183.2820,71.8699,150.8789,1,0
0001001227,5,-0.1656,0.7719,0.2124,0.5759,-1419,-134,114,-2147,-467,-43,239,-459,-171,182.2372,73.6160,150.9041,1,0
0001001248,5,-0.1640,0.7644,0.2072,0.5881,-1409,-162,171,-2155,-515,-51,178,-516,-232,181.5916,75.2441,150.8998,1,0
0001001269,5,-0.1642,0.7553,0.2025,0.6013,-1409,-162,171,-2235,-487,-27,102,-569,-268,181.1258,77.1204,150.8739,1,0
0001001290,5,-0.1657,0.7448,0.1994,0.6149,-1401,-191,231,-2395,-467,-95,24,-600,-297,180.4623,79.1082,150.4040,1,0
0001001311,5,-0.1684,0.7335,0.1964,0.6286,-1387,-228,289,-2415,-535,-83,5,-599,-332,180.0645,81.1923,150.0808,1,0
0001001332,5,-0.1734,0.7185,0.1928,0.6454,-1387,-228,289,-2431,-659,47,-61,-615,-356,180.1268,83.8670,150.0707,1,0
0001001353,5,-0.1795,0.7047,0.1923,0.6589,-1369,-271,349,-2447,-611,111,-213,-669,-371,179.6308,86.1493,149.1210,1,0
0001001374,5,-0.1888,0.6891,0.1944,0.6721,-1369,-271,349,-2479,-615,67,-358,-688,-394,177.4095,88.5508,145.9677,1,0
0001001395,5,-0.1995,0.6731,0.1978,0.6842,-1350,-327,400,-2355,-319,-163,-378,-628,-370,7.4458,89.0893,-25.1844,1,0
0001001416,5,-0.2082,0.6583,0.2006,0.6951,-1325,-378,449,-2571,-71,-655,-255,-605,-297,5.2271,86.9544,-28.3876,1,0
0001001437,5,-0.2105,0.6440,0.2011,0.7074,-1325,-378,449,-2675,23,-1023,55,-448,-139,8.4690,84.8017,-25.4107,1,0
0001001458,5,-0.2075,0.6392,0.1991,0.7133,-1312,-395,495,-2475,471,-1087,163,-196,-27,10.2858,83.9542,-23.1813,1,0
0001001479,5,-0.2052,0.6388,0.1994,0.7142,-1317,-389,504,-2007,855,-775,-22,-20,76,12.2314,83.8655,-21.0711,1,0
0001001500,5,-0.2067,0.6385,0.2052,0.7124,-1325,-389,490,-1855,863,-147,-354,-7,162,15.7263,84.0122,-18.1871,1,0
0001001521,5,-0.2120,0.6368,0.2161,0.7092,-1325,-389,490,-1947,311,451,-499,-44,157,20.8898,84.1244,-14.3922,1,0
0001001542,5,-0.2210,0.6340,0.2297,0.7046,-1336,-391,472,-2123,7,231,-463,50,113,25.6668,84.2326,-11.5477,1,0
0001001563,5,-0.2280,0.6326,0.2395,0.7003,-1336,-391,472,-2083,-67,615,-492,0,122,28.9220,84.4314,-9.7351,1,0
0001001584,5,-0.2348,0.6273,0.2521,0.6985,-1342,-393,450,-1995,71,943,-553,-208,161,33.8437,84.0622,-6.4835,1,0
0001001605,5,-0.2397,0.6213,0.2652,0.6973,-1345,-390,453,-1999,235,623,-411,-130,207,39.4635,83.4945,-2.4378,1,0
0001001626,5,-0.2418,0.6179,0.2758,0.6954,-1345,-390,453,-2107,211,411,-263,-130,222,45.1714,83.1362,2.1505,1,0
0001001647,5,-0.2412,0.6144,0.2863,0.6945,-1353,-371,454,-2411,71,163,-172,-139,203,51.3659,82.5427,7.4644,1,0
0001001668,5,-0.2391,0.6131,0.2922,0.6939,-1359,-351,462,-2687,15,-55,-48,-57,193,55.4461,82.1643,11.1984,1,0
0001001689,5,-0.2350,0.6145,0.2952,0.6929,-1359,-351,462,-2147,107,271,89,-19,197,59.5827,81.9852,15.4300,1,0
0001001710,5,-0.2294,0.6148,0.2979,0.6933,-1368,-325,468,-1815,155,575,69,-126,197,63.0898,81.5543,19.1778,1,0
0001001731,5,-0.2254,0.6138,0.3018,0.6938,-1371,-305,480,-2015,-83,371,-34,-74,168,65.6423,81.0224,21.7214,1,0
0001001752,5,-0.2231,0.6136,0.3079,0.6920,-1371,-305,480,-2223,15,115,-131,7,216,69.3990,80.6347,25.1301,1,0
0001001773,5,-0.2231,0.6135,0.3163,0.6883,-1383,-285,474,-1775,547,475,-276,-4,278,73.7666,80.3056,28.7611,1,0
0001001794,5,-0.2237,0.6121,0.3268,0.6845,-1395,-263,469,-1963,739,631,-283,-33,278,77.9326,79.7798,31.9219,1,0
0001001815,5,-0.2225,0.6127,0.3336,0.6811,-1395,-263,469,-2055,651,623,-68,54,227,81.6488,79.4109,35.1321,1,0
0001001836,5,-0.2206,0.6149,0.3371,0.6780,-1404,-238,461,-2035,295,455,-28,64,153,84.8972,79.2492,38.2336,1,0
0001001857,5,-0.2192,0.6167,0.3409,0.6749,-1410,-223,453,-1999,251,395,-60,46,143,87.8846,79.0559,40.9977,1,0
0001001878,5,-0.2189,0.6173,0.3448,0.6724,-1410,-223,453,-2003,295,359,-117,29,145,89.9872,78.8444,42.7704,1,0
0001001899,5,-0.2191,0.6169,0.3498,0.6701,-1418,-200,446,-2023,323,443,-153,-6,146,91.7010,78.5515,44.0098,1,0
0001001920,5,-0.2196,0.6163,0.3548,0.6678,-1419,-188,440,-2019,479,347,-161,11,131,93.2373,78.2590,45.0363,1,0
0001001941,5,-0.2211,0.6155,0.3596,0.6656,-1419,-188,440,-1999,583,327,-171,5,89,94.5084,78.0451,45.7403,1,0
0001001962,5,-0.2225,0.6145,0.3641,0.6635,-1423,-185,439,-1999,603,331,-97,1,70,95.5615,77.8352,46.2512,1,0
0001001983,5,-0.2225,0.6142,0.3663,0.6627,-1424,-178,434,-1983,495,427,-45,-22,51,96.1310,77.6810,46.6242,1,0
0001002004,5,-0.2223,0.6133,0.3680,0.6626,-1424,-178,434,-1995,427,439,-55,-48,32,96.1400,77.5088,46.4844,1,0
0001002025,5,-0.2228,0.6116,0.3700,0.6629,-1424,-178,441,-2023,267,371,-96,-66,10,95.7163,77.3415,45.8241,1,0
0001002046,5,-0.2241,0.6091,0.3724,0.6634,-1426,-182,444,-2059,279,335,-135,-84,-1,95.0048,77.1768,44.7735,1,0
0001002067,5,-0.2265,0.6051,0.3760,0.6642,-1426,-182,444,-2051,315,359,-172,-98,-14,93.8072,76.9447,43.0161,1,0
0001002088,5,-0.2289,0.6016,0.3789,0.6649,-1423,-190,454,-1979,435,439,-156,-96,-22,92.7415,76.7735,41.4634,1,0
0001002109,5,-0.2303,0.5985,0.3809,0.6661,-1419,-196,460,-1931,543,535,-82,-100,-30,91.6371,76.5977,40.0408,1,0
0001002130,5,-0.2304,0.5963,0.3812,0.6678,-1419,-196,460,-1939,591,495,7,-99,-48,90.4310,76.4437,38.7890,1,0
0001002151,5,-0.2292,0.5946,0.3797,0.6707,-1414,-202,475,-2015,431,551,124,-124,-93,88.8731,76.3049,37.4687,1,0
0001002172,5,-0.2265,0.5927,0.3752,0.6758,-1406,-209,493,-2011,375,563,164,-137,-136,86.1769,76.1657,35.4194,1,0
0001002193,5,-0.2250,0.5906,0.3709,0.6805,-1406,-209,493,-2003,347,515,137,-145,-172,83.4587,76.0767,33.2282,1,0
0001002214,5,-0.2238,0.5885,0.3661,0.6853,-1399,-228,515,-1927,471,551,165,-136,-184,80.6217,76.0176,30.9233,1,0
0001002235,5,-0.2213,0.5866,0.3603,0.6907,-1387,-240,536,-1879,527,631,240,-163,-185,77.6571,75.8950,28.6894,1,0
0001002256,5,-0.2177,0.5849,0.3536,0.6967,-1387,-240,536,-1983,435,671,287,-175,-205,74.5768,75.7048,26.5319,1,0
0001002277,5,-0.2129,0.5828,0.3431,0.7052,-1373,-260,567,-2027,219,659,340,-171,-264,70.1145,75.4843,23.4168,1,0
0001002298,5,-0.2091,0.5814,0.3331,0.7123,-1358,-275,596,-1951,143,667,373,-158,-293,66.1921,75.3544,20.7173,1,0
0001002319,5,-0.2055,0.5797,0.3227,0.7195,-1358,-275,596,-1971,167,755,346,-169,-307,62.0878,75.1821,17.8372,1,0
0001002340,5,-0.2027,0.5774,0.3126,0.7265,-1339,-299,623,-1931,239,867,318,-171,-318,57.9531,74.9497,14.8302,1,0
