Time(ms),Interval,Qx,Qy,Qz,Qw,Mx,My,Mz,Ax,Ay,Az,Rx,Ry,Rz,H1,P1,R1,H2,P2,R2,CalStable,MagTransient
0000979744,0,-0.6772,-0.3869,-0.5835,0.2265,1940,640,-228,1847,263,-447,8,3,0,85.6389,-74.9060,146.2497,1,0
0000979765,0,-0.6771,-0.3869,-0.5835,0.2267,1942,638,-227,1879,267,-455,6,6,1,85.6684,-74.9257,146.2455,1,0
0000979786,0,-0.6770,-0.3870,-0.5835,0.2270,1941,636,-228,1899,275,-459,7,3,2,85.6802,-74.9428,146.2562,1,0
0000979807,0,-0.6768,-0.3870,-0.5835,0.2272,1943,638,-228,1883,283,-447,10,7,2,85.6923,-74.9629,146.2753,1,0
0000979828,0,-0.6766,-0.3872,-0.5836,0.2276,1941,637,-227,1835,271,-423,14,13,-1,85.7579,-74.9923,146.2540,1,0
0000979849,0,-0.6763,-0.3873,-0.5837,0.2280,1941,637,-225,1839,251,-411,12,11,-3,85.8677,-75.0223,146.1898,1,0
0000979870,0,-0.6760,-0.3875,-0.5837,0.2282,1942,638,-225,1859,263,-415,6,6,-3,85.9567,-75.0379,146.1342,1,0
0000979891,0,-0.6759,-0.3875,-0.5838,0.2283,1942,638,-225,1883,275,-419,3,7,-2,86.0220,-75.0516,146.0817,1,0
0000979912,0,-0.6757,-0.3876,-0.5840,0.2284,1941,638,-224,1867,287,-419,3,9,-2,86.1177,-75.0730,146.0030,1,0
0000979933,0,-0.6754,-0.3877,-0.5842,0.2286,1941,639,-223,1835,271,-419,6,11,-4,86.2259,-75.0946,145.9136,1,0
0000979954,0,-0.6751,-0.3878,-0.5844,0.2287,1941,639,-223,1827,267,-411,4,13,-7,86.3707,-75.1169,145.7905,1,0
0000979975,0,-0.6748,-0.3879,-0.5846,0.2288,1943,640,-222,1855,283,-415,1,13,-7,86.5377,-75.1391,145.6355,1,0
0000979996,0,-0.6745,-0.3879,-0.5850,0.2289,1940,640,-221,1883,295,-419,4,17,-7,86.7164,-75.1669,145.4683,1,0
0000980017,0,-0.6740,-0.3881,-0.5853,0.2291,1941,640,-217,1875,283,-411,6,18,-5,86.9503,-75.2102,145.2650,1,0
0000980038,0,-0.6737,-0.3881,-0.5856,0.2293,1940,642,-216,1875,283,-403,4,15,-5,87.1119,-75.2413,145.1238,1,0
0000980059,0,-0.6734,-0.3881,-0.5859,0.2294,1940,642,-216,1867,283,-403,0,14,-2,87.2453,-75.2720,145.0034,1,0
0000980080,0,-0.6732,-0.3880,-0.5862,0.2295,1940,640,-216,1887,299,-411,-7,13,1,87.3449,-75.3070,144.8921,1,0
0000980101,0,-0.6731,-0.3878,-0.5864,0.2296,1941,640,-213,1883,303,-407,-6,10,4,87.4011,-75.3445,144.8194,1,0
0000980122,0,-0.6730,-0.3874,-0.5867,0.2296,1941,640,-212,1879,311,-411,-7,5,4,87.4156,-75.3794,144.7761,1,0
0000980143,0,-0.6731,-0.3872,-0.5867,0.2296,1941,638,-212,1907,323,-435,-7,-1,7,87.3672,-75.3953,144.8035,1,0
0000980164,0,-0.6734,-0.3869,-0.5867,0.2293,1940,636,-214,1895,311,-439,-20,-12,3,87.2498,-75.3796,144.8676,1,0
0000980185,0,-0.6737,-0.3867,-0.5867,0.2289,1941,638,-212,1903,275,-419,-14,-6,1,87.1649,-75.3581,144.8954,1,0
0000980206,0,-0.6740,-0.3863,-0.5867,0.2285,1941,636,-213,1859,247,-387,-31,-19,12,87.0357,-75.3442,144.9537,1,0
0000980227,0,-0.6749,-0.3854,-0.5866,0.2278,1941,636,-213,1875,271,-375,-38,-10,21,86.6766,-75.3311,145.1715,1,0
0000980248,0,-0.6756,-0.3841,-0.5869,0.2271,1941,633,-213,1875,295,-379,-66,-14,23,86.3709,-75.3449,145.2985,1,0
0000980269,0,-0.6765,-0.3826,-0.5873,0.2260,1942,631,-212,1903,323,-411,-77,-15,23,86.0452,-75.3481,145.3830,1,0
0000980290,0,-0.6776,-0.3811,-0.5874,0.2247,1943,628,-211,1911,331,-419,-78,-33,26,85.6179,-75.3266,145.5577,1,0
0000980311,0,-0.6790,-0.3795,-0.5875,0.2233,1943,623,-210,1851,355,-403,-86,-26,30,85.1062,-75.2899,145.7975,1,0
0000980332,0,-0.6804,-0.3772,-0.5879,0.2216,1943,621,-210,1827,335,-375,-92,-17,30,84.5551,-75.2911,145.9920,1,0
0000980353,0,-0.6817,-0.3752,-0.5884,0.2200,1945,619,-206,1839,299,-379,-104,-24,35,84.0949,-75.2905,146.1249,1,0
0000980374,0,-0.6831,-0.3727,-0.5889,0.2183,1945,612,-201,1891,291,-371,-127,-19,45,83.5477,-75.3060,146.2992,1,0
0000980395,0,-0.6849,-0.3694,-0.5897,0.2161,1945,612,-201,1887,323,-375,-176,-30,62,82.8206,-75.3372,146.5176,1,0
0000980416,0,-0.6873,-0.3652,-0.5905,0.2133,1948,607,-196,1847,367,-363,-204,-39,78,81.8661,-75.3632,146.8493,1,0
0000980437,0,-0.6898,-0.3610,-0.5911,0.2109,1949,598,-193,1847,367,-347,-215,-42,84,80.7506,-75.4006,147.3732,1,0
0000980458,0,-0.6926,-0.3562,-0.5919,0.2077,1954,588,-190,1859,359,-343,-224,-54,92,79.5436,-75.4234,147.8591,1,0
0000980479,0,-0.6951,-0.3527,-0.5918,0.2056,1956,576,-185,1855,323,-335,-239,-76,100,78.3918,-75.4018,148.5088,1,0
0000980500,0,-0.6987,-0.3470,-0.5921,0.2018,1958,564,-182,1835,283,-331,-263,-79,115,76.7572,-75.3643,149.3103,1,0
0000980521,0,-0.7016,-0.3424,-0.5922,0.1994,1962,550,-177,1831,275,-311,-284,-63,135,75.2929,-75.3708,150.1523,1,0
0000980542,0,-0.7056,-0.3351,-0.5928,0.1957,1965,533,-169,1815,327,-327,-322,-57,146,73.2469,-75.4339,151.2222,1,0
0000980563,0,-0.7096,-0.3273,-0.5940,0.1913,1965,533,-169,1811,347,-363,-337,-57,154,71.3259,-75.5008,152.0612,1,0
0000980584,0,-0.7128,-0.3208,-0.5946,0.1882,1971,518,-163,1787,339,-391,-333,-59,162,69.5485,-75.5655,153.0025,1,0
0000980605,0,-0.7166,-0.3128,-0.5956,0.1842,1975,499,-155,1783,315,-379,-327,-37,165,67.4843,-75.6599,154.0012,1,0
0000980626,0,-0.7191,-0.3060,-0.5968,0.1816,1979,479,-142,1815,303,-363,-334,-2,162,65.8240,-75.8296,154.8453,1,0
0000980647,0,-0.7219,-0.2971,-0.5991,0.1782,1983,462,-126,1891,247,-375,-337,17,160,63.8501,-76.1137,155.7257,1,0
0000980668,0,-0.7243,-0.2883,-0.6015,0.1745,1987,443,-109,1895,171,-427,-341,37,168,62.0851,-76.4029,156.4044,1,0
0000980689,0,-0.7259,-0.2807,-0.6038,0.1723,1991,420,-88,1811,3,-459,-355,47,187,60.3769,-76.7407,157.2486,1,0
0000980710,0,-0.7281,-0.2704,-0.6068,0.1689,1994,394,-64,1771,-31,-359,-385,77,214,58.1565,-77.1561,158.2779,1,0
0000980731,0,-0.7293,-0.2603,-0.6104,0.1667,1994,394,-64,1755,59,-319,-449,141,241,55.9188,-77.7185,159.4355,1,0
0000980752,0,-0.7299,-0.2460,-0.6164,0.1634,1999,361,-30,1799,75,-311,-451,175,241,52.9576,-78.6056,160.8750,1,0
0000980773,0,-0.7304,-0.2333,-0.6218,0.1598,1999,329,2,1947,55,-319,-443,181,233,50.2815,-79.3632,162.1400,1,0
0000980794,0,-0.7302,-0.2227,-0.6264,0.1578,2002,299,37,2107,67,-283,-421,165,223,47.6871,-80.0735,163.6476,1,0
0000980815,0,-0.7306,-0.2115,-0.6305,0.1546,2000,270,62,2323,-87,-267,-366,123,202,44.6623,-80.6600,165.4399,1,0
0000980836,0,-0.7311,-0.2040,-0.6326,0.1538,2001,245,75,2303,-307,-227,-249,25,180,41.7250,-81.0305,167.6748,1,0
0000980857,0,-0.7334,-0.1960,-0.6328,0.1527,2001,223,78,2127,-387,-259,-272,-39,168,37.6046,-81.1143,171.0322,1,0
0000980878,0,-0.7365,-0.1883,-0.6324,0.1492,2002,204,74,1971,-235,-291,-295,-80,143,34.4469,-80.9811,173.2539,1,0
0000980899,0,-0.7394,-0.1837,-0.6307,0.1472,2002,204,74,1931,-183,-279,-243,-117,109,32.1254,-80.6997,175.0302,1,0
0000980920,0,-0.7429,-0.1790,-0.6287,0.1440,2003,190,66,1911,-147,-307,-181,-144,74,30.3230,-80.3130,176.1791,1,0
0000980941,0,-0.7460,-0.1784,-0.6254,0.1433,2002,180,46,1891,-155,-311,-87,-193,30,29.4645,-79.8062,176.9394,1,0
0000980962,0,-0.7501,-0.1797,-0.6204,0.1421,2003,182,25,1831,-155,-375,-63,-201,-18,29.3867,-79.0463,177.0451,1,0
0000980983,0,-0.7533,-0.1810,-0.6166,0.1400,2001,187,1,1815,-219,-363,6,-207,-61,29.9248,-78.4207,176.4510,1,0
0000981004,0,-0.7557,-0.1859,-0.6121,0.1400,2001,199,-22,1803,-279,-395,41,-212,-85,31.1212,-77.7576,175.6869,1,0
0000981025,0,-0.7584,-0.1897,-0.6078,0.1389,1996,211,-48,1783,-315,-407,86,-209,-93,32.1619,-77.0950,174.8854,1,0
0000981046,0,-0.7604,-0.1959,-0.6032,0.1400,1994,226,-71,1783,-299,-495,107,-195,-99,33.4256,-76.4455,174.2523,1,0
0000981067,0,-0.7625,-0.2036,-0.5977,0.1414,1994,226,-71,1739,-287,-519,126,-176,-98,34.9038,-75.6929,173.5604,1,0
0000981088,0,-0.7640,-0.2082,-0.5941,0.1418,1990,237,-93,1799,-247,-495,144,-147,-89,35.8045,-75.1771,173.1051,1,0
0000981109,0,-0.7645,-0.2146,-0.5904,0.1446,1984,249,-112,1867,-239,-511,161,-120,-69,36.7409,-74.7507,172.9498,1,0
0000981130,0,-0.7652,-0.2187,-0.5876,0.1464,1982,258,-126,1883,-151,-615,158,-95,-52,37.2467,-74.4119,172.9532,1,0
0000981151,0,-0.7651,-0.2240,-0.5849,0.1494,1977,263,-140,1927,-7,-627,128,-60,-61,37.9486,-74.1449,172.9729,1,0
0000981172,0,-0.7642,-0.2300,-0.5831,0.1520,1975,275,-144,1871,67,-587,102,-15,-86,39.1270,-73.9640,172.5323,1,0
0000981193,0,-0.7630,-0.2333,-0.5833,0.1522,1966,288,-142,1667,131,-603,76,41,-109,40.2649,-73.9785,171.6949,1,0
0000981214,0,-0.7602,-0.2383,-0.5845,0.1538,1962,303,-130,1603,143,-519,78,95,-127,41.9617,-74.1489,170.5497,1,0
0000981235,0,-0.7571,-0.2417,-0.5872,0.1537,1962,303,-130,1591,171,-507,61,143,-147,43.7633,-74.4467,169.0217,1,0
0000981256,0,-0.7525,-0.2468,-0.5906,0.1550,1954,322,-112,1679,219,-563,70,201,-168,46.2195,-74.8726,167.0905,1,0
0000981277,0,-0.7459,-0.2535,-0.5957,0.1566,1945,342,-91,1739,243,-583,86,219,-184,49.8143,-75.4799,164.1759,1,0
0000981298,0,-0.7407,-0.2576,-0.6003,0.1568,1938,362,-67,1895,387,-535,80,223,-185,52.8364,-75.9660,161.5068,1,0
0000981319,0,-0.7351,-0.2629,-0.6046,0.1579,1928,383,-44,1995,547,-539,42,208,-184,56.2543,-76.3877,158.6215,1,0
0000981340,0,-0.7305,-0.2664,-0.6089,0.1569,1920,407,-23,2051,595,-499,40,186,-193,59.5396,-76.7097,155.5333,1,0
0000981361,0,-0.7255,-0.2721,-0.6122,0.1575,1911,428,-9,1959,539,-431,68,155,-186,63.1382,-76.9192,152.4666,1,0
0000981382,0,-0.7200,-0.2785,-0.6157,0.1583,1902,445,3,1967,551,-463,78,133,-160,67.1679,-77.0743,149.0519,1,0
0000981403,0,-0.7166,-0.2824,-0.6177,0.1588,1902,445,3,1935,483,-491,116,101,-130,69.6410,-77.1425,146.9558,1,0
0000981424,0,-0.7132,-0.2879,-0.6184,0.1613,1895,461,8,1919,475,-439,135,73,-103,71.7991,-77.1557,145.4885,1,0
0000981445,0,-0.7108,-0.2916,-0.6189,0.1631,1890,472,10,1911,495,-431,143,60,-79,73.3122,-77.1658,144.4426,1,0
0000981466,0,-0.7083,-0.2967,-0.6186,0.1664,1886,482,8,1939,471,-455,148,23,-59,74.7018,-77.1536,143.7803,1,0
0000981487,0,-0.7063,-0.3024,-0.6171,0.1700,1883,490,3,1935,459,-427,128,-20,-43,75.6631,-77.0355,143.6218,1,0
0000981508,0,-0.7061,-0.3048,-0.6158,0.1712,1881,493,-3,1847,491,-439,95,-32,-21,75.7524,-76.9099,143.8538,1,0
0000981529,0,-0.7058,-0.3081,-0.6138,0.1737,1879,495,-15,1799,411,-435,82,-61,3,75.6948,-76.7760,144.4243,1,0
0000981550,0,-0.7070,-0.3090,-0.6118,0.1745,1879,492,-24,1775,399,-443,39,-89,31,74.8591,-76.6121,145.4092,1,0
0000981571,0,-0.7081,-0.3104,-0.6093,0.1761,1879,492,-24,1759,447,-443,-9,-89,63,73.9101,-76.4572,146.6232,1,0
0000981592,0,-0.7101,-0.3102,-0.6067,0.1773,1881,483,-33,1727,499,-491,-36,-87,77,72.4272,-76.3187,148.2075,1,0
0000981613,0,-0.7124,-0.3085,-0.6050,0.1770,1884,474,-41,1695,483,-511,-49,-86,74,71.0014,-76.2112,149.4585,1,0
0000981634,0,-0.7143,-0.3077,-0.6031,0.1770,1885,466,-49,1687,439,-595,-67,-97,66,69.8019,-76.0656,150.5996,1,0
0000981655,0,-0.7167,-0.3057,-0.6016,0.1759,1887,460,-56,1771,379,-543,-78,-95,64,68.5169,-75.9113,151.6186,1,0
0000981676,0,-0.7195,-0.3036,-0.5999,0.1742,1889,451,-64,1711,491,-547,-105,-107,59,67.1634,-75.6835,152.6541,1,0
0000981697,0,-0.7222,-0.3006,-0.5987,0.1723,1891,444,-67,1811,575,-571,-84,-50,64,65.7898,-75.5274,153.6031,1,0
0000981718,0,-0.7235,-0.2986,-0.5982,0.1718,1893,438,-67,1823,619,-599,-42,-24,62,64.9086,-75.5168,154.2736,1,0
0000981739,0,-0.7243,-0.2977,-0.5975,0.1725,1893,438,-67,1875,511,-563,37,-14,47,64.2049,-75.5303,154.9581,1,0
0000981760,0,-0.7240,-0.2981,-0.5970,0.1747,1893,433,-69,1939,467,-671,97,33,33,63.8584,-75.6143,155.5289,1,0
0000981781,0,-0.7227,-0.2996,-0.5966,0.1788,1894,428,-67,1851,371,-631,229,68,50,63.7032,-75.8169,156.1558,1,0
0000981802,0,-0.7203,-0.3030,-0.5952,0.1871,1896,425,-69,1663,319,-623,303,73,64,63.2569,-76.1423,157.6078,1,0
0000981823,0,-0.7177,-0.3069,-0.5938,0.1952,1899,420,-69,1595,283,-623,361,95,46,63.0024,-76.4512,158.8951,1,0
0000981844,0,-0.7141,-0.3119,-0.5927,0.2037,1899,421,-67,1587,263,-575,391,127,8,63.2078,-76.7940,159.8577,1,0
0000981865,0,-0.7094,-0.3176,-0.5922,0.2123,1899,427,-62,1619,283,-515,401,161,-27,64.0848,-77.2064,160.2173,1,0
0000981886,0,-0.7039,-0.3238,-0.5924,0.2208,1898,435,-53,1659,259,-511,424,202,-56,65.5172,-77.6736,160.0628,1,0
0000981907,0,-0.6955,-0.3323,-0.5932,0.2323,1898,435,-53,1707,195,-523,452,244,-68,68.0141,-78.3874,159.2991,1,0
0000981928,0,-0.6877,-0.3391,-0.5946,0.2419,1894,445,-38,1679,175,-535,460,295,-79,70.6406,-79.0811,158.1094,1,0
0000981949,0,-0.6783,-0.3462,-0.5968,0.2527,1891,458,-18,1627,115,-503,519,366,-85,74.0809,-79.9293,156.2339,1,0
0000981970,0,-0.6674,-0.3535,-0.5997,0.2646,1886,474,8,1547,83,-419,530,429,-91,78.7573,-80.9389,153.2449,1,0
0000981991,0,-0.6555,-0.3602,-0.6034,0.2766,1881,490,42,1523,107,-319,530,480,-95,84.8441,-82.0143,148.8212,1,0
0000982012,0,-0.6389,-0.3686,-0.6086,0.2925,1870,510,80,1563,127,-139,559,534,-109,96.2345,-83.3582,139.6062,1,0
0000982033,0,-0.6243,-0.3748,-0.6137,0.3052,1859,533,125,1639,147,-63,519,584,-121,110.1769,-84.2946,127.3802,1,0
0000982054,0,-0.6088,-0.3802,-0.6197,0.3174,1845,557,176,1847,179,35,497,618,-135,129.4759,-84.8345,109.7052,1,0
0000982075,0,-0.5926,-0.3854,-0.6259,0.3295,1845,557,176,1883,127,51,514,633,-142,151.1792,-84.7305,89.6259,1,0
0000982096,0,-0.5756,-0.3910,-0.6315,0.3421,1826,585,225,1759,47,95,572,646,-152,170.0560,-83.9798,72.4930,1,0
0000982117,0,-0.5529,-0.3987,-0.6379,0.3584,1804,618,270,1823,-71,231,592,661,-163,187.0539,-82.3686,57.8394,1,0
0000982138,0,-0.5342,-0.4048,-0.6427,0.3712,1779,652,314,2063,-31,367,579,652,-168,196.1776,-80.7848,50.6195,1,0
0000982159,0,-0.5174,-0.4090,-0.6477,0.3815,1755,686,357,2047,119,331,393,568,-163,202.2195,-79.1955,46.0939,1,0
0000982180,0,-0.5030,-0.4117,-0.6529,0.3890,1729,716,395,1791,275,315,341,522,-166,206.1040,-77.6920,43.3145,1,0
0000982201,0,-0.4869,-0.4153,-0.6573,0.3979,1703,749,433,1619,183,395,498,614,-153,209.5807,-76.0896,41.2240,1,0
0000982222,0,-0.4639,-0.4208,-0.6619,0.4117,1669,787,468,1695,35,667,542,630,-150,213.8544,-73.8842,39.1086,1,0
0000982243,0,-0.4470,-0.4245,-0.6653,0.4212,1669,787,468,1935,231,795,406,521,-157,216.3666,-72.2390,38.1304,1,0
0000982264,0,-0.4346,-0.4265,-0.6690,0.4263,1643,821,500,2039,339,887,205,368,-167,217.6427,-70.9161,37.7466,1,0
0000982285,0,-0.4248,-0.4281,-0.6722,0.4294,1619,846,522,1767,347,815,231,319,-146,218.3274,-69.8504,37.7039,1,0
0000982306,0,-0.4130,-0.4306,-0.6747,0.4345,1594,873,544,1811,175,927,287,441,-140,219.3636,-68.6724,37.6336,1,0
0000982327,0,-0.3978,-0.4303,-0.6800,0.4406,1564,897,579,1887,295,907,108,457,-136,221.0376,-66.9695,36.8445,1,0
0000982348,0,-0.3883,-0.4276,-0.6852,0.4437,1535,910,614,1939,483,899,48,385,-118,222.1712,-65.7259,35.9526,1,0
0000982369,0,-0.3802,-0.4264,-0.6887,0.4465,1514,927,635,1879,459,923,123,293,-90,222.9635,-64.7417,35.5091,1,0
0000982390,0,-0.3727,-0.4268,-0.6906,0.4495,1495,941,652,1751,371,955,148,252,-71,223.5943,-63.9532,35.3948,1,0
0000982411,0,-0.3659,-0.4262,-0.6927,0.4523,1495,941,652,1759,343,1027,63,278,-66,224.2556,-63.1889,35.1268,1,0
0000982432,0,-0.3581,-0.4232,-0.6968,0.4551,1477,951,675,1819,383,1059,-20,279,-56,225.1723,-62.1665,34.3905,1,0
0000982453,0,-0.3537,-0.4197,-0.7000,0.4568,1455,955,701,1795,443,1043,-38,226,-27,225.8719,-61.4869,33.6383,1,0
0000982474,0,-0.3503,-0.4166,-0.7025,0.4585,1444,956,724,1787,463,1079,-38,188,-10,226.5067,-60.9474,32.9567,1,0
0000982495,0,-0.3478,-0.4138,-0.7046,0.4597,1432,955,744,1807,487,1079,-55,146,-1,227.0248,-60.5275,32.3591,1,0
0000982516,0,-0.3459,-0.4108,-0.7067,0.4606,1423,951,759,1799,515,1059,-68,148,-5,227.4836,-60.1587,31.7593,1,0
0000982537,0,-0.3433,-0.4070,-0.7094,0.4618,1414,949,779,1783,495,1051,-56,152,-3,228.0503,-59.6550,31.0219,1,0
0000982558,0,-0.3412,-0.4042,-0.7112,0.4630,1404,945,796,1715,463,1059,-57,141,8,228.5185,-59.2777,30.4556,1,0
0000982579,0,-0.3399,-0.4010,-0.7130,0.4639,1404,945,796,1707,503,1039,-86,116,12,228.9660,-58.9602,29.8378,1,0
0000982600,0,-0.3395,-0.3983,-0.7146,0.4643,1398,940,812,1707,531,1039,-76,62,13,229.2754,-58.7554,29.3140,1,0
0000982621,0,-0.3398,-0.3967,-0.7152,0.4644,1394,934,819,1663,499,1023,-56,8,16,229.4379,-58.7009,28.9977,1,0
0000982642,0,-0.3407,-0.3949,-0.7159,0.4641,1395,931,824,1639,479,1023,-60,15,10,229.5594,-58.6916,28.6669,1,0
0000982663,0,-0.3411,-0.3934,-0.7167,0.4640,1393,925,832,1627,475,1027,-66,28,8,229.6755,-58.6391,28.3789,1,0
0000982684,0,-0.3414,-0.3916,-0.7176,0.4638,1392,920,840,1643,527,999,-70,28,5,229.7910,-58.5661,28.0708,1,0
0000982705,0,-0.3418,-0.3901,-0.7184,0.4636,1392,918,844,1635,527,987,-57,19,3,229.8768,-58.5107,27.8064,1,0
0000982726,0,-0.3420,-0.3890,-0.7191,0.4633,1388,915,850,1631,503,951,-43,22,-2,229.9242,-58.4596,27.6265,1,0
0000982747,0,-0.3418,-0.3877,-0.7199,0.4632,1388,915,850,1595,483,943,-26,36,-3,230.0016,-58.3542,27.4256,1,0
0000982768,0,-0.3410,-0.3871,-0.7204,0.4635,1386,915,856,1599,455,963,-7,43,-3,230.0907,-58.2327,27.3231,1,0
0000982789,0,-0.3404,-0.3865,-0.7209,0.4638,1383,913,857,1583,451,983,-11,31,-2,230.1761,-58.1279,27.2253,1,0
0000982810,0,-0.3402,-0.3860,-0.7212,0.4637,1383,915,862,1567,483,975,-16,9,-2,230.2080,-58.0784,27.1520,1,0
0000982831,0,-0.3401,-0.3857,-0.7215,0.4637,1379,913,864,1595,515,971,-13,15,-5,230.2137,-58.0416,27.1098,1,0
0000982852,0,-0.3394,-0.3853,-0.7220,0.4637,1378,913,864,1627,483,959,4,28,-10,230.2369,-57.9386,27.0689,1,0
0000982873,0,-0.3388,-0.3855,-0.7221,0.4638,1376,915,864,1607,463,935,22,5,-9,230.2231,-57.8796,27.1400,1,0
0000982894,0,-0.3384,-0.3862,-0.7219,0.4639,1377,916,863,1619,447,963,27,-2,-5,230.1808,-57.8759,27.2638,1,0
0000982915,0,-0.3380,-0.3865,-0.7218,0.4640,1377,916,863,1619,467,955,4,15,-5,230.1656,-57.8530,27.3235,1,0
0000982936,0,-0.3375,-0.3863,-0.7220,0.4642,1374,917,866,1631,475,951,4,26,-3,230.1997,-57.7879,27.3106,1,0
0000982957,0,-0.3368,-0.3863,-0.7222,0.4646,1372,917,866,1647,463,951,11,13,0,230.2645,-57.7124,27.2937,1,0
0000982978,0,-0.3366,-0.3865,-0.7220,0.4647,1372,920,867,1623,471,947,12,-4,0,230.2731,-57.7106,27.3276,1,0
0000982999,0,-0.3367,-0.3869,-0.7218,0.4647,1372,919,864,1623,483,959,10,-10,-3,230.2360,-57.7364,27.3968,1,0
0000983020,0,-0.3365,-0.3871,-0.7218,0.4647,1373,920,866,1631,471,991,4,11,-6,230.2105,-57.7308,27.4460,1,0
0000983041,0,-0.3361,-0.3870,-0.7220,0.4647,1370,922,866,1619,487,983,-4,18,-7,230.2161,-57.6786,27.4466,1,0
0000983062,0,-0.3358,-0.3867,-0.7223,0.4647,1368,920,868,1611,511,971,-5,19,-4,230.2287,-57.6226,27.4134,1,0
0000983083,0,-0.3353,-0.3864,-0.7226,0.4649,1368,920,868,1607,511,959,3,29,0,230.2894,-57.5453,27.3603,1,0
0000983104,0,-0.3345,-0.3863,-0.7227,0.4654,1366,923,872,1619,443,979,22,26,4,230.3795,-57.4667,27.3337,1,0
0000983125,0,-0.3340,-0.3864,-0.7225,0.4659,1365,924,871,1595,439,979,13,5,4,230.4476,-57.4302,27.3383,1,0
0000983146,0,-0.3338,-0.3865,-0.7225,0.4661,1365,924,871,1595,443,987,8,10,4,230.4936,-57.4171,27.3233,1,0
0000983167,0,-0.3334,-0.3860,-0.7227,0.4664,1363,924,873,1603,467,983,-10,23,3,230.5827,-57.3534,27.2309,1,0
0000983188,0,-0.3332,-0.3854,-0.7230,0.4666,1363,922,875,1619,479,963,-12,19,3,230.6578,-57.2977,27.1305,1,0
0000983209,0,-0.3331,-0.3851,-0.7231,0.4667,1361,922,877,1607,483,959,-5,6,5,230.7116,-57.2714,27.0538,1,0
0000983230,0,-0.3332,-0.3850,-0.7231,0.4669,1362,920,877,1595,479,951,4,1,5,230.7453,-57.2771,27.0284,1,0
0000983251,0,-0.3331,-0.3850,-0.7230,0.4670,1362,920,877,1607,487,963,3,1,0,230.7658,-57.2757,27.0183,1,0
0000983272,0,-0.3329,-0.3851,-0.7230,0.4671,1362,920,877,1587,459,987,10,10,-1,230.7807,-57.2551,27.0344,1,0
0000983293,0,-0.3325,-0.3849,-0.7232,0.4672,1360,922,879,1603,455,987,-4,18,-5,230.8058,-57.2023,27.0173,1,0
0000983314,0,-0.3323,-0.3847,-0.7234,0.4672,1360,922,880,1583,459,987,-1,5,-3,230.8121,-57.1634,26.9967,1,0
0000983335,0,-0.3323,-0.3846,-0.7235,0.4671,1359,922,879,1599,499,963,-11,8,-1,230.8074,-57.1543,26.9824,1,0
0000983356,0,-0.3321,-0.3842,-0.7237,0.4672,1359,922,882,1643,507,975,-1,15,0,230.8380,-57.1142,26.9257,1,0
0000983377,0,-0.3319,-0.3842,-0.7238,0.4673,1357,921,880,1635,459,991,7,-3,2,230.8722,-57.0906,26.9099,1,0
0000983398,0,-0.3320,-0.3843,-0.7236,0.4674,1360,923,883,1607,463,975,0,-1,1,230.8674,-57.1092,26.9249,1,0
0000983419,0,-0.3317,-0.3840,-0.7238,0.4675,1360,923,883,1619,475,979,-5,26,1,230.9203,-57.0644,26.8636,1,0
0000983440,0,-0.3314,-0.3835,-0.7241,0.4677,1356,922,884,1599,487,979,-8,7,0,230.9842,-57.0036,26.7838,1,0
0000983461,0,-0.3314,-0.3835,-0.7242,0.4677,1356,922,885,1591,487,987,3,-5,-1,230.9805,-56.9991,26.7780,1,0
0000983482,0,-0.3313,-0.3837,-0.7241,0.4677,1356,922,883,1587,475,991,6,3,-3,230.9560,-56.9972,26.8276,1,0
0000983503,0,-0.3312,-0.3837,-0.7242,0.4676,1356,922,885,1611,475,991,0,0,-3,230.9435,-56.9836,26.8426,1,0
0000983524,0,-0.3313,-0.3839,-0.7241,0.4675,1357,924,883,1587,471,983,5,-12,-1,230.9106,-57.0043,26.8756,1,0
0000983545,0,-0.3313,-0.3841,-0.7240,0.4675,1356,923,883,1603,491,995,2,10,-5,230.8886,-57.0137,26.9116,1,0
0000983566,0,-0.3309,-0.3839,-0.7242,0.4675,1356,924,886,1599,467,983,-1,17,-4,230.9010,-56.9632,26.9003,1,0
0000983587,0,-0.3306,-0.3839,-0.7243,0.4676,1356,924,886,1591,455,987,8,0,-1,230.9182,-56.9268,26.9047,1,0
0000983608,0,-0.3307,-0.3841,-0.7243,0.4675,1355,926,884,1591,491,979,-1,-11,-4,230.8797,-56.9446,26.9405,1,0
0000983629,0,-0.3308,-0.3842,-0.7243,0.4673,1356,926,883,1571,463,999,3,-3,-5,230.8338,-56.9541,26.9806,1,0
0000983650,0,-0.3305,-0.3843,-0.7244,0.4673,1355,928,883,1571,435,1007,0,12,-9,230.8103,-56.9289,27.0200,1,0
0000983671,0,-0.3302,-0.3841,-0.7247,0.4672,1354,927,885,1579,443,1015,-10,17,-9,230.8048,-56.8724,27.0004,1,0
0000983692,0,-0.3299,-0.3833,-0.7254,0.4670,1352,925,889,1579,475,1011,-26,21,-9,230.8115,-56.7844,26.9104,1,0
0000983713,0,-0.3298,-0.3826,-0.7259,0.4668,1349,924,889,1595,483,995,-26,16,-7,230.8176,-56.7217,26.8198,1,0
0000983734,0,-0.3298,-0.3822,-0.7263,0.4666,1349,924,892,1603,467,999,-14,3,-6,230.8073,-56.6851,26.7678,1,0
0000983755,0,-0.3300,-0.3821,-0.7264,0.4663,1349,924,892,1599,451,1035,-13,-13,-4,230.7657,-56.6986,26.7679,1,0
0000983776,0,-0.3305,-0.3819,-0.7266,0.4659,1349,922,894,1587,479,1071,-24,-10,-6,230.7093,-56.7242,26.7496,1,0
0000983797,0,-0.3308,-0.3811,-0.7272,0.4653,1349,924,895,1583,503,1047,-35,8,-11,230.6486,-56.7032,26.6716,1,0
0000983818,0,-0.3309,-0.3806,-0.7277,0.4649,1347,920,897,1595,503,1003,-22,8,-11,230.6161,-56.6573,26.6126,1,0
0000983839,0,-0.3310,-0.3805,-0.7279,0.4646,1347,920,898,1579,491,1003,-8,-12,-9,230.5533,-56.6537,26.6271,1,0
0000983860,0,-0.3313,-0.3806,-0.7279,0.4642,1346,920,895,1543,491,1007,-1,-14,-7,230.4756,-56.6851,26.6802,1,0
0000983881,0,-0.3312,-0.3808,-0.7280,0.4640,1346,922,895,1547,471,1043,2,2,-12,230.4154,-56.6788,26.7363,1,0
0000983902,0,-0.3309,-0.3807,-0.7285,0.4636,1342,922,897,1547,455,1055,-13,7,-21,230.3318,-56.6186,26.7750,1,0
0000983923,0,-0.3307,-0.3805,-0.7290,0.4630,1342,922,897,1551,467,1035,-22,3,-27,230.2193,-56.5704,26.8126,1,0
0000983944,0,-0.3307,-0.3801,-0.7298,0.4622,1341,920,898,1579,471,999,-28,5,-31,230.0849,-56.5142,26.8327,1,0
0000983965,0,-0.3305,-0.3800,-0.7304,0.4615,1338,922,899,1579,427,999,-7,0,-33,229.9362,-56.4574,26.9025,1,0
0000983986,0,-0.3305,-0.3801,-0.7309,0.4606,1336,921,897,1567,439,1007,-17,-12,-31,229.7648,-56.4290,27.0026,1,0
0000984007,0,-0.3308,-0.3799,-0.7315,0.4596,1336,922,899,1547,455,1023,-26,-3,-27,229.5612,-56.4173,27.0724,1,0
0000984028,0,-0.3306,-0.3794,-0.7323,0.4588,1330,922,902,1547,463,1031,-34,21,-33,229.4401,-56.3405,27.0758,1,0
0000984049,0,-0.3300,-0.3785,-0.7335,0.4581,1325,921,907,1563,451,1035,-39,43,-38,229.3504,-56.1892,27.0330,1,0
0000984070,0,-0.3294,-0.3775,-0.7348,0.4573,1318,920,911,1575,443,1027,-46,34,-40,229.2561,-56.0235,26.9733,1,0
0000984091,0,-0.3294,-0.3768,-0.7357,0.4562,1318,920,911,1599,407,1059,-40,-15,-37,229.0849,-55.9531,26.9751,1,0
0000984112,0,-0.3311,-0.3767,-0.7364,0.4541,1319,918,911,1571,499,1067,-66,-70,-35,228.7017,-56.0781,27.0795,1,0
0000984133,0,-0.3326,-0.3762,-0.7372,0.4522,1319,916,910,1607,515,1059,-74,-28,-41,228.3873,-56.1592,27.1135,1,0
0000984154,0,-0.3330,-0.3750,-0.7385,0.4507,1315,911,913,1659,475,1063,-81,21,-43,228.1949,-56.0782,27.0412,1,0
0000984175,0,-0.3333,-0.3732,-0.7402,0.4491,1312,909,921,1667,455,1067,-107,-2,-46,228.0187,-55.9650,26.8890,1,0
0000984196,0,-0.3346,-0.3718,-0.7416,0.4471,1310,903,923,1675,459,1075,-99,-47,-42,227.7469,-55.9702,26.7868,1,0
0000984217,0,-0.3379,-0.3712,-0.7423,0.4440,1317,897,920,1679,435,1111,-90,-111,-32,227.2433,-56.2189,26.8404,1,0
0000984238,0,-0.3409,-0.3707,-0.7426,0.4415,1320,891,917,1663,439,1119,-112,-98,-24,226.8429,-56.4723,26.8635,1,0
0000984259,0,-0.3438,-0.3692,-0.7435,0.4390,1320,891,917,1691,467,1115,-140,-70,-21,226.5409,-56.6564,26.7081,1,0
0000984280,0,-0.3471,-0.3672,-0.7445,0.4364,1324,882,922,1831,503,1071,-166,-117,-17,226.2337,-56.8567,26.4859,1,0
0000984301,0,-0.3518,-0.3658,-0.7449,0.4332,1331,870,920,1831,479,1039,-152,-175,-9,225.8005,-57.2390,26.3533,1,0
0000984322,0,-0.3579,-0.3661,-0.7432,0.4308,1346,858,909,1779,399,1099,-127,-205,4,225.4167,-57.9341,26.3722,1,0
0000984343,0,-0.3635,-0.3655,-0.7426,0.4277,1361,850,904,1807,407,1139,-154,-188,12,224.9703,-58.4739,26.3203,1,0
0000984364,0,-0.3687,-0.3648,-0.7411,0.4262,1376,834,895,1847,435,1115,-182,-206,23,224.8366,-59.0398,26.1226,1,0
0000984385,0,-0.3757,-0.3633,-0.7404,0.4227,1398,818,886,1887,431,1039,-198,-254,38,224.4006,-59.7073,25.9080,1,0
0000984406,0,-0.3828,-0.3628,-0.7381,0.4206,1419,799,871,1855,395,1007,-196,-283,50,224.1946,-60.5069,25.7035,1,0
0000984427,0,-0.3930,-0.3621,-0.7349,0.4176,1419,799,871,1795,323,999,-206,-312,66,223.8735,-61.6435,25.4439,1,0
0000984448,0,-0.4024,-0.3608,-0.7327,0.4135,1446,779,855,1807,291,1019,-221,-338,69,223.3622,-62.6381,25.2368,1,0
0000984469,0,-0.4119,-0.3602,-0.7294,0.4105,1474,757,835,1839,251,1043,-255,-373,70,223.0424,-63.7234,25.0143,1,0
0000984490,0,-0.4233,-0.3581,-0.7269,0.4051,1505,731,812,1851,199,1023,-310,-406,81,222.3538,-64.9070,24.7756,1,0
0000984511,0,-0.4348,-0.3560,-0.7236,0.4009,1537,703,793,1831,55,1095,-398,-414,103,221.9986,-66.1518,24.3187,1,0
0000984532,0,-0.4520,-0.3495,-0.7205,0.3931,1568,658,773,1747,39,991,-552,-449,103,221.5727,-67.8215,23.1236,1,0
0000984553,0,-0.4680,-0.3419,-0.7190,0.3836,1603,614,754,1687,131,931,-602,-487,105,220.8598,-69.2732,22.0005,1,0
0000984574,0,-0.4838,-0.3351,-0.7160,0.3755,1634,567,729,1623,223,847,-624,-503,110,220.5035,-70.8183,20.7736,1,0
0000984595,0,-0.4999,-0.3265,-0.7141,0.3655,1634,567,729,1659,251,683,-600,-431,115,219.9903,-72.2846,19.3773,1,0
0000984616,0,-0.5133,-0.3197,-0.7111,0.3586,1663,522,710,1707,235,603,-574,-430,105,220.0885,-73.6054,17.8841,1,0
0000984637,0,-0.5307,-0.3115,-0.7070,0.3485,1688,481,681,1791,327,499,-562,-475,97,219.9214,-75.3625,16.2230,1,0
0000984658,0,-0.5450,-0.3046,-0.7038,0.3388,1717,443,649,1799,299,475,-507,-449,85,219.4269,-76.8098,15.0913,1,0
0000984679,0,-0.5566,-0.2994,-0.7005,0.3316,1737,411,624,1767,239,459,-488,-371,64,219.2653,-78.0307,14.0373,1,0
0000984700,0,-0.5677,-0.2928,-0.6985,0.3226,1754,384,597,1743,171,427,-453,-350,34,218.7230,-79.1109,13.1202,1,0
0000984721,0,-0.5774,-0.2886,-0.6956,0.3153,1772,364,573,1875,43,455,-437,-359,11,218.0558,-80.1654,12.7017,1,0
0000984742,0,-0.5896,-0.2835,-0.6921,0.3049,1784,343,540,1971,63,435,-447,-368,-11,216.4173,-81.5097,12.8989,1,0
0000984763,0,-0.5999,-0.2791,-0.6894,0.2950,1784,343,540,1911,63,331,-411,-391,-19,214.0883,-82.6305,13.9160,1,0
0000984784,0,-0.6094,-0.2766,-0.6854,0.2870,1801,329,509,1759,115,243,-388,-395,-18,211.3102,-83.7787,15.7390,1,0
0000984805,0,-0.6187,-0.2736,-0.6819,0.2782,1812,317,473,1747,39,227,-292,-366,-31,207.1160,-84.8655,18.8594,1,0
0000984826,0,-0.6263,-0.2736,-0.6774,0.2720,1826,312,437,1879,0,211,-242,-373,-45,200.9584,-85.8590,24.4601,1,0
0000984847,0,-0.6361,-0.2750,-0.6708,0.2642,1838,312,396,1951,-7,99,-195,-426,-62,185.0644,-87.0586,39.7720,1,0
0000984868,0,-0.6448,-0.2764,-0.6646,0.2572,1849,315,347,1963,-75,-63,-129,-465,-56,158.0919,-87.7598,66.2506,1,0
0000984889,0,-0.6529,-0.2798,-0.6570,0.2524,1862,318,299,1831,-63,-155,-121,-471,-45,120.6051,-87.7513,103.6157,1,0
0000984910,0,-0.6602,-0.2837,-0.6496,0.2484,1870,320,250,1739,-75,-155,-64,-413,-42,95.4400,-87.0170,128.7749,1,0
0000984931,0,-0.6672,-0.2861,-0.6431,0.2437,1870,320,250,1751,-111,-155,-30,-401,-43,82.3154,-86.0484,141.7150,1,0
0000984952,0,-0.6748,-0.2914,-0.6341,0.2402,1879,325,208,1727,-43,-255,-30,-392,-41,73.6266,-84.6964,150.5793,1,0
0000984973,0,-0.6808,-0.2938,-0.6281,0.2360,1881,330,163,1739,75,-439,-32,-338,-40,69.6725,-83.6601,154.3994,1,0
0000984994,0,-0.6846,-0.2980,-0.6225,0.2345,1887,335,131,1895,51,-443,11,-262,-51,67.8076,-82.7927,156.5228,1,0
0000985015,0,-0.6873,-0.3022,-0.6181,0.2329,1888,344,103,1911,87,-447,-28,-214,-78,67.3129,-82.0548,157.2682,1,0
0000985036,0,-0.6902,-0.3043,-0.6152,0.2292,1887,351,83,2019,151,-387,-46,-181,-93,67.2664,-81.3947,157.1947,1,0
0000985057,0,-0.6922,-0.3076,-0.6129,0.2250,1885,361,71,1931,227,-431,-124,-135,-110,68.3961,-80.7137,156.0022,1,0
0000985078,0,-0.6941,-0.3084,-0.6123,0.2196,1883,375,57,1811,139,-379,-124,-130,-120,69.3574,-80.2016,154.6617,1,0
0000985099,0,-0.6953,-0.3107,-0.6112,0.2156,1883,375,57,1591,159,-359,-156,-123,-112,70.4639,-79.6986,153.4240,1,0
0000985120,0,-0.6965,-0.3123,-0.6105,0.2115,1881,384,49,1547,143,-299,-155,-105,-89,71.3767,-79.2440,152.3017,1,0
0000985141,0,-0.6982,-0.3119,-0.6104,0.2066,1875,394,40,1551,215,-283,-144,-78,-73,71.7968,-78.8798,151.4337,1,0
0000985162,0,-0.6987,-0.3125,-0.6105,0.2035,1877,398,40,1631,295,-339,-110,-30,-46,72.5598,-78.6206,150.4596,1,0
0000985183,0,-0.6988,-0.3120,-0.6114,0.2012,1872,400,40,1759,315,-375,-68,16,-45,73.1310,-78.5448,149.6442,1,0
0000985204,0,-0.6972,-0.3136,-0.6123,0.2014,1870,406,48,1827,331,-379,-25,50,-51,74.3562,-78.5761,148.5773,1,0
0000985225,0,-0.6951,-0.3158,-0.6134,0.2021,1865,413,54,1807,343,-367,-10,71,-67,75.8675,-78.6377,147.3149,1,0
0000985246,0,-0.6933,-0.3165,-0.6153,0.2013,1860,422,62,1759,395,-363,-9,80,-80,77.4708,-78.7102,145.7049,1,0
0000985267,0,-0.6899,-0.3196,-0.6174,0.2018,1860,422,62,1831,371,-343,5,84,-93,80.1229,-78.7768,143.3669,1,0
0000985288,0,-0.6878,-0.3209,-0.6193,0.2010,1856,434,72,1891,387,-327,0,76,-91,82.0364,-78.7953,141.5000,1,0
0000985309,0,-0.6852,-0.3234,-0.6207,0.2014,1849,439,78,1995,467,-315,-17,67,-80,84.0514,-78.8017,139.7409,1,0
0000985330,0,-0.6837,-0.3242,-0.6224,0.2005,1847,448,84,1971,511,-299,-16,54,-64,85.5147,-78.7956,138.2546,1,0
0000985351,0,-0.6816,-0.3262,-0.6234,0.2009,1842,454,89,1867,543,-271,-17,48,-59,87.0494,-78.7868,136.9408,1,0
0000985372,0,-0.6796,-0.3283,-0.6245,0.2011,1840,458,95,1859,599,-287,-14,37,-58,88.7003,-78.7467,135.4881,1,0
0000985393,0,-0.6787,-0.3293,-0.6252,0.2002,1835,467,94,1963,583,-327,8,7,-60,89.5892,-78.6617,134.6141,1,0
0000985414,0,-0.6776,-0.3322,-0.6247,0.2009,1834,474,91,2007,503,-327,24,-23,-53,90.3254,-78.5121,134.1983,1,0
0000985435,0,-0.6777,-0.3335,-0.6241,0.2001,1834,474,91,1903,547,-355,10,-51,-37,90.3715,-78.3299,134.2019,1,0
0000985456,0,-0.6783,-0.3346,-0.6231,0.1992,1833,475,85,1823,535,-335,18,-68,-32,90.0979,-78.1270,134.5073,1,0
0000985477,0,-0.6789,-0.3379,-0.6206,0.1996,1832,481,73,1815,487,-319,29,-97,-25,89.6148,-77.8145,135.3220,1,0
0000985498,0,-0.6804,-0.3393,-0.6183,0.1989,1835,484,62,1839,475,-339,36,-120,-10,88.6638,-77.5350,136.3562,1,0
0000985519,0,-0.6816,-0.3421,-0.6153,0.1996,1835,483,44,1875,471,-423,28,-137,2,87.6965,-77.2402,137.6396,1,0
0000985540,0,-0.6833,-0.3445,-0.6118,0.2002,1839,483,28,1819,447,-459,15,-161,18,86.4641,-76.9176,139.1566,1,0
0000985561,0,-0.6862,-0.3452,-0.6086,0.1992,1841,481,7,1739,411,-383,5,-169,24,84.8118,-76.5734,140.7949,1,0
0000985582,0,-0.6891,-0.3469,-0.6043,0.1989,1844,479,-5,1631,471,-395,-15,-153,30,83.0528,-76.1505,142.7054,1,0
0000985603,0,-0.6915,-0.3469,-0.6019,0.1981,1844,479,-5,1759,479,-383,1,-112,26,81.7983,-75.8889,143.9066,1,0
0000985624,0,-0.6920,-0.3486,-0.5999,0.1993,1844,473,-15,1939,463,-447,18,-41,17,81.3202,-75.7492,144.6412,1,0
0000985645,0,-0.6920,-0.3489,-0.5994,0.2002,1847,475,-20,1783,315,-519,56,-2,16,81.1059,-75.7620,144.9679,1,0
0000985666,0,-0.6920,-0.3495,-0.5987,0.2015,1848,474,-20,1815,323,-427,55,0,17,80.8974,-75.7836,145.3382,1,0
0000985687,0,-0.6908,-0.3521,-0.5974,0.2050,1848,472,-24,1935,227,-347,92,7,13,80.9794,-75.8455,145.7925,1,0
0000985708,0,-0.6902,-0.3532,-0.5968,0.2065,1847,474,-23,2111,175,-419,62,5,-1,81.0117,-75.8712,145.9972,1,0
0000985729,0,-0.6895,-0.3554,-0.5956,0.2085,1847,474,-30,2003,123,-411,34,-31,6,81.0923,-75.8347,146.2933,1,0
0000985750,0,-0.6891,-0.3572,-0.5944,0.2104,1849,471,-31,1875,123,-427,11,-14,16,81.0143,-75.8056,146.6941,1,0
0000985771,0,-0.6896,-0.3571,-0.5939,0.2105,1849,471,-31,1799,103,-411,-9,-29,14,80.7228,-75.7806,146.9873,1,0
0000985792,0,-0.6898,-0.3581,-0.5927,0.2112,1849,468,-35,1859,139,-399,-28,-44,13,80.4421,-75.6956,147.4314,1,0
0000985813,0,-0.6909,-0.3576,-0.5920,0.2105,1850,469,-40,1927,187,-475,-24,-50,15,79.9759,-75.5969,147.7978,1,0
0000985834,0,-0.6914,-0.3589,-0.5904,0.2112,1851,466,-45,1843,183,-463,-9,-70,14,79.6345,-75.4642,148.3268,1,0
0000985855,0,-0.6920,-0.3604,-0.5884,0.2119,1853,466,-55,1699,151,-423,18,-81,15,79.1877,-75.2872,148.9811,1,0
0000985876,0,-0.6933,-0.3610,-0.5865,0.2119,1854,464,-63,1599,79,-375,40,-78,18,78.5131,-75.0953,149.7185,1,0
0000985897,0,-0.6945,-0.3619,-0.5843,0.2127,1854,462,-73,1635,79,-415,58,-52,23,77.7330,-74.9239,150.6646,1,0
0000985918,0,-0.6950,-0.3627,-0.5828,0.2140,1856,460,-77,1751,75,-415,70,-32,26,77.2453,-74.8602,151.3403,1,0
0000985939,0,-0.6952,-0.3634,-0.5816,0.2156,1856,460,-77,1859,87,-415,66,-9,22,76.8471,-74.8484,151.9405,1,0
0000985960,0,-0.6948,-0.3639,-0.5811,0.2171,1855,458,-79,2039,151,-515,57,22,19,76.6948,-74.9099,152.2713,1,0
0000985981,0,-0.6942,-0.3642,-0.5810,0.2187,1857,455,-78,2019,171,-559,49,29,14,76.6588,-75.0194,152.4736,1,0
0000986002,0,-0.6940,-0.3645,-0.5808,0.2197,1856,454,-79,1999,195,-527,10,-6,2,76.5987,-75.0650,152.6378,1,0
0000986023,0,-0.6942,-0.3646,-0.5805,0.2195,1856,455,-80,1903,199,-515,-2,-14,-3,76.5399,-75.0217,152.6964,1,0
0000986044,0,-0.6943,-0.3646,-0.5804,0.2192,1856,456,-81,1843,191,-503,-9,-8,-4,76.5196,-74.9961,152.6938,1,0
0000986065,0,-0.6945,-0.3646,-0.5803,0.2190,1856,455,-82,1779,199,-427,-4,-12,0,76.4768,-74.9606,152.7175,1,0
0000986086,0,-0.6946,-0.3645,-0.5803,0.2189,1856,457,-80,1847,227,-435,-5,3,1,76.4294,-74.9570,152.7478,1,0
0000986107,0,-0.6945,-0.3644,-0.5804,0.2190,1856,457,-80,1891,215,-479,4,2,-1,76.4628,-74.9806,152.7181,1,0
0000986128,0,-0.6946,-0.3645,-0.5803,0.2191,1854,456,-82,1903,211,-495,4,-9,0,76.4453,-74.9684,152.7480,1,0
0000986149,0,-0.6948,-0.3646,-0.5798,0.2192,1856,455,-82,1903,219,-479,12,-22,6,76.2822,-74.9306,152.9340,1,0
0000986170,0,-0.6953,-0.3649,-0.5791,0.2193,1855,455,-87,1863,203,-515,18,-32,8,76.0465,-74.8640,153.2097,1,0
0000986191,0,-0.6958,-0.3653,-0.5782,0.2195,1857,455,-91,1859,223,-515,21,-39,6,75.7658,-74.7774,153.5428,1,0
0000986212,0,-0.6965,-0.3659,-0.5768,0.2198,1856,452,-98,1859,227,-507,32,-42,7,75.3804,-74.6457,154.0204,1,0
0000986233,0,-0.6970,-0.3666,-0.5756,0.2202,1858,453,-104,1847,207,-503,39,-39,8,75.0955,-74.5436,154.4086,1,0
0000986254,0,-0.6974,-0.3671,-0.5745,0.2207,1858,453,-107,1827,199,-511,34,-36,11,74.7981,-74.4586,154.8081,1,0
0000986275,0,-0.6979,-0.3676,-0.5735,0.2212,1858,453,-107,1811,191,-507,30,-31,16,74.4844,-74.3823,155.2113,1,0
0000986296,0,-0.6984,-0.3678,-0.5726,0.2217,1858,451,-114,1799,203,-507,24,-25,18,74.1515,-74.3288,155.6162,1,0
0000986317,0,-0.6989,-0.3679,-0.5716,0.2224,1858,448,-116,1823,231,-511,23,-16,22,73.7445,-74.2923,156.0946,1,0
0000986338,0,-0.6991,-0.3679,-0.5711,0.2230,1859,446,-119,1839,231,-523,22,-8,17,73.4880,-74.2855,156.4122,1,0
0000986359,0,-0.6992,-0.3680,-0.5707,0.2236,1860,444,-119,1875,219,-527,18,-2,12,73.3155,-74.2944,156.6422,1,0
0000986380,0,-0.6992,-0.3680,-0.5705,0.2241,1859,443,-121,1875,203,-527,13,-5,10,73.1746,-74.3033,156.8231,1,0
0000986401,0,-0.6994,-0.3680,-0.5702,0.2244,1861,443,-122,1871,203,-531,11,-6,11,73.0300,-74.2984,157.0004,1,0
0000986422,0,-0.6996,-0.3679,-0.5698,0.2249,1860,441,-123,1863,207,-519,11,-8,14,72.8093,-74.2995,157.2577,1,0
0000986443,0,-0.6998,-0.3679,-0.5694,0.2252,1860,441,-123,1847,199,-519,8,-8,12,72.6332,-74.2896,157.4578,1,0
0000986464,0,-0.7000,-0.3677,-0.5693,0.2253,1862,439,-123,1823,195,-507,-3,0,8,72.4971,-74.2914,157.5940,1,0
0000986485,0,-0.7000,-0.3675,-0.5694,0.2255,1860,438,-123,1831,183,-507,-1,5,8,72.4305,-74.3178,157.6438,1,0
0000986506,0,-0.7000,-0.3672,-0.5694,0.2256,1861,436,-125,1815,215,-515,-3,4,10,72.3446,-74.3414,157.7192,1,0
0000986527,0,-0.6998,-0.3669,-0.5697,0.2258,1863,436,-120,1847,203,-527,-1,20,5,72.3469,-74.4002,157.7109,1,0
0000986548,0,-0.6996,-0.3667,-0.5700,0.2260,1861,436,-120,1875,195,-515,-4,17,5,72.3654,-74.4540,157.6842,1,0
0000986569,0,-0.6995,-0.3664,-0.5703,0.2262,1862,436,-117,1875,211,-507,-4,13,2,72.3877,-74.5031,157.6484,1,0
0000986590,0,-0.6994,-0.3663,-0.5705,0.2263,1860,434,-117,1867,207,-507,0,7,2,72.4126,-74.5322,157.6197,1,0
0000986611,0,-0.6993,-0.3664,-0.5705,0.2264,1860,434,-117,1847,175,-535,9,0,0,72.4083,-74.5438,157.6445,1,0
0000986632,0,-0.6993,-0.3666,-0.5703,0.2266,1863,436,-116,1839,171,-515,6,-4,0,72.3818,-74.5306,157.7038,1,0
0000986653,0,-0.6993,-0.3666,-0.5702,0.2267,1862,436,-117,1827,175,-519,2,0,0,72.3694,-74.5232,157.7276,1,0
0000986674,0,-0.6993,-0.3667,-0.5702,0.2267,1862,436,-120,1811,171,-511,-1,1,0,72.3663,-74.5236,157.7323,1,0
0000986695,0,-0.6993,-0.3666,-0.5703,0.2266,1863,435,-117,1819,187,-487,-5,3,0,72.3730,-74.5290,157.7157,1,0
0000986716,0,-0.6993,-0.3664,-0.5704,0.2265,1862,434,-118,1831,199,-507,-9,5,2,72.3770,-74.5436,157.6860,1,0
0000986737,0,-0.6993,-0.3662,-0.5706,0.2264,1863,435,-116,1851,227,-511,-6,2,0,72.3796,-74.5604,157.6552,1,0
0000986758,0,-0.6993,-0.3661,-0.5707,0.2263,1862,434,-118,1851,235,-507,-6,1,-1,72.3953,-74.5625,157.6199,1,0
0000986779,0,-0.6993,-0.3662,-0.5707,0.2262,1862,434,-118,1831,215,-511,4,-4,-2,72.4134,-74.5504,157.6019,1,0
0000986800,0,-0.6993,-0.3664,-0.5706,0.2263,1863,436,-116,1831,215,-511,8,3,-3,72.4432,-74.5431,157.5972,1,0
0000986821,0,-0.6991,-0.3667,-0.5705,0.2265,1862,436,-117,1839,219,-515,12,0,-5,72.5147,-74.5464,157.5732,1,0
0000986842,0,-0.6989,-0.3670,-0.5705,0.2267,1862,436,-118,1863,215,-519,13,3,-8,72.5989,-74.5405,157.5267,1,0
0000986863,0,-0.6987,-0.3674,-0.5704,0.2268,1862,438,-117,1867,211,-511,15,0,-10,72.7107,-74.5353,157.4667,1,0
0000986884,0,-0.6986,-0.3678,-0.5703,0.2269,1861,438,-119,1855,215,-503,11,-1,-9,72.8119,-74.5168,157.4073,1,0
0000986905,0,-0.6984,-0.3681,-0.5702,0.2269,1860,439,-119,1843,211,-503,9,-2,-9,72.9027,-74.4970,157.3529,1,0
0000986926,0,-0.6983,-0.3684,-0.5702,0.2269,1859,440,-120,1847,223,-507,4,-4,-6,72.9826,-74.4811,157.2962,1,0
0000986947,0,-0.6983,-0.3687,-0.5701,0.2269,1859,440,-120,1859,235,-507,7,-2,-4,73.0320,-74.4567,157.2724,1,0
0000986968,0,-0.6982,-0.3689,-0.5700,0.2269,1861,441,-120,1851,247,-499,7,-2,-5,73.0761,-74.4487,157.2554,1,0
0000986989,0,-0.6982,-0.3692,-0.5699,0.2269,1860,441,-121,1859,243,-515,6,-2,-6,73.1302,-74.4305,157.2226,1,0
0000987010,0,-0.6981,-0.3694,-0.5698,0.2269,1862,441,-122,1859,235,-507,7,-4,-8,73.2052,-74.4131,157.1695,1,0
0000987031,0,-0.6981,-0.3698,-0.5696,0.2269,1860,442,-123,1855,235,-503,6,-6,-5,73.2648,-74.3808,157.1438,1,0
0000987052,0,-0.6981,-0.3700,-0.5695,0.2268,1860,443,-127,1843,239,-499,7,-9,-2,73.2719,-74.3563,157.1547,1,0
0000987073,0,-0.6982,-0.3703,-0.5691,0.2268,1861,443,-125,1815,243,-495,7,-15,-3,73.2391,-74.3140,157.2119,1,0
0000987094,0,-0.6983,-0.3705,-0.5690,0.2267,1860,445,-127,1811,247,-515,3,-4,-3,73.2432,-74.2818,157.2205,1,0
0000987115,0,-0.6983,-0.3706,-0.5688,0.2269,1860,445,-127,1827,187,-483,20,0,8,73.2467,-74.2794,157.2491,1,0
0000987136,0,-0.6983,-0.3706,-0.5686,0.2275,1863,444,-126,1827,199,-483,17,2,24,73.0869,-74.3013,157.4642,1,0
0000987157,0,-0.6984,-0.3698,-0.5684,0.2286,1861,439,-127,1799,299,-535,8,23,44,72.6555,-74.3999,157.9172,1,0
0000987178,0,-0.6982,-0.3691,-0.5686,0.2301,1865,436,-123,1827,263,-531,32,35,46,72.3248,-74.5535,158.3007,1,0
0000987199,0,-0.6981,-0.3688,-0.5682,0.2318,1866,429,-123,1787,215,-511,48,14,48,71.9024,-74.6554,158.8422,1,0
0000987220,0,-0.6979,-0.3683,-0.5681,0.2336,1867,426,-120,1799,191,-527,36,33,48,71.5092,-74.7946,159.3457,1,0
0000987241,0,-0.6978,-0.3677,-0.5677,0.2358,1869,419,-119,1763,167,-507,40,21,56,70.8909,-74.9406,160.0978,1,0
0000987262,0,-0.6979,-0.3669,-0.5674,0.2374,1870,412,-118,1731,199,-487,31,22,60,70.3291,-75.0645,160.7352,1,0
0000987283,0,-0.6978,-0.3664,-0.5670,0.2395,1870,412,-118,1779,207,-411,54,24,61,69.7304,-75.1916,161.4585,1,0
0000987304,0,-0.6977,-0.3660,-0.5665,0.2415,1874,404,-115,1839,167,-463,55,11,55,69.1474,-75.3001,162.1874,1,0
0000987325,0,-0.6978,-0.3660,-0.5656,0.2433,1874,400,-118,1827,163,-463,54,-4,44,68.5976,-75.3491,162.8974,1,0
0000987346,0,-0.6981,-0.3661,-0.5644,0.2449,1878,396,-118,1847,147,-467,53,-17,28,68.0250,-75.3353,163.6266,1,0
0000987367,0,-0.6980,-0.3669,-0.5635,0.2462,1877,393,-123,1927,203,-483,66,-7,9,67.8021,-75.3124,164.0424,1,0
0000987388,0,-0.6977,-0.3678,-0.5628,0.2475,1879,394,-127,2019,375,-643,71,0,1,67.7605,-75.3108,164.2823,1,0
0000987409,0,-0.6970,-0.3694,-0.5617,0.2496,1879,393,-129,2071,331,-683,141,-3,8,67.7286,-75.3131,164.6491,1,0
0000987430,0,-0.6972,-0.3703,-0.5599,0.2516,1879,390,-140,1971,179,-543,183,-40,25,67.1767,-75.2515,165.4714,1,0
0000987451,0,-0.6972,-0.3734,-0.5561,0.2554,1879,390,-140,1795,111,-471,172,-61,27,66.5591,-75.0606,166.7295,1,0
0000987472,0,-0.6980,-0.3738,-0.5541,0.2569,1883,388,-149,1815,35,-439,134,-41,33,65.8195,-74.9306,167.6490,1,0
0000987493,0,-0.6990,-0.3732,-0.5527,0.2580,1883,384,-158,1839,-19,-459,99,-24,48,64.9955,-74.8630,168.5241,1,0
0000987514,0,-0.6994,-0.3735,-0.5510,0.2603,1886,377,-162,1899,191,-539,76,-21,67,64.2320,-74.8356,169.5209,1,0
0000987535,0,-0.7006,-0.3720,-0.5501,0.2611,1886,370,-168,1843,303,-551,80,-18,56,63.2248,-74.8035,170.4737,1,0
0000987556,0,-0.7001,-0.3736,-0.5481,0.2641,1889,367,-172,1835,227,-559,139,-9,5,62.8293,-74.7757,171.2970,1,0
0000987577,0,-0.6992,-0.3761,-0.5465,0.2666,1888,369,-177,1835,139,-567,152,-17,-14,62.9397,-74.7281,171.6441,1,0
0000987598,0,-0.6984,-0.3788,-0.5444,0.2691,1890,369,-185,1771,51,-531,163,-34,-6,63.0129,-74.6373,172.0514,1,0
0000987619,0,-0.6976,-0.3815,-0.5422,0.2717,1890,369,-185,1695,55,-495,157,-24,-3,63.0065,-74.5366,172.5571,1,0
0000987640,0,-0.6965,-0.3837,-0.5407,0.2744,1890,370,-190,1699,31,-499,150,14,-4,63.0521,-74.5337,172.9718,1,0
0000987661,0,-0.6944,-0.3862,-0.5397,0.2783,1888,371,-192,1719,-63,-543,143,46,-2,63.1804,-74.6690,173.4200,1,0
0000987682,0,-0.6937,-0.3858,-0.5400,0.2798,1891,369,-187,1719,-143,-567,92,61,5,62.9360,-74.8260,173.7551,1,0
0000987703,0,-0.6923,-0.3858,-0.5409,0.2817,1890,369,-181,1767,-167,-543,32,89,9,62.9377,-75.0713,173.9212,1,0
0000987724,0,-0.6919,-0.3833,-0.5431,0.2816,1893,369,-168,1899,-175,-487,-30,99,10,62.6433,-75.3570,173.9468,1,0
0000987745,0,-0.6921,-0.3792,-0.5467,0.2799,1892,366,-152,1947,-123,-539,-138,131,16,62.3430,-75.7038,173.6902,1,0
0000987766,0,-0.6911,-0.3747,-0.5516,0.2787,1894,365,-128,1999,-39,-647,-156,149,22,62.2664,-76.2437,173.1960,1,0
0000987787,0,-0.6916,-0.3687,-0.5565,0.2760,1894,365,-128,1947,-79,-671,-146,143,27,61.7838,-76.6947,172.8524,1,0
0000987808,0,-0.6911,-0.3653,-0.5597,0.2751,1895,360,-109,1847,-163,-607,-126,98,26,61.6077,-77.0550,172.6180,1,0
0000987829,0,-0.6922,-0.3598,-0.5635,0.2717,1895,356,-96,1771,-183,-507,-161,101,12,61.0785,-77.3355,172.3202,1,0
0000987850,0,-0.6927,-0.3541,-0.5683,0.2680,1897,355,-76,1771,-167,-495,-186,136,7,60.9078,-77.7161,171.6109,1,0
0000987871,0,-0.6919,-0.3495,-0.5729,0.2664,1895,350,-58,1807,-183,-527,-140,128,24,60.9085,-78.2243,171.0162,1,0
0000987892,0,-0.6919,-0.3447,-0.5767,0.2645,1897,348,-39,1923,-179,-543,-101,127,25,60.4899,-78.6051,170.8123,1,0
0000987913,0,-0.6916,-0.3404,-0.5803,0.2628,1897,346,-22,2019,-139,-571,-111,118,13,60.2700,-78.9872,170.4728,1,0
0000987934,0,-0.6910,-0.3378,-0.5832,0.2614,1898,348,-9,2071,-83,-643,-126,82,-11,60.5107,-79.2711,169.8577,1,0
0000987955,0,-0.6908,-0.3362,-0.5853,0.2593,1898,348,-9,1923,-127,-607,-102,35,-34,61.0953,-79.4120,168.9399,1,0
0000987976,0,-0.6908,-0.3354,-0.5868,0.2568,1897,348,-2,1787,-163,-551,-72,5,-45,61.9669,-79.4222,167.7722,1,0
0000987997,0,-0.6916,-0.3334,-0.5884,0.2535,1897,351,0,1611,-155,-487,-82,19,-44,62.3953,-79.4127,166.8690,1,0
0000988018,0,-0.6911,-0.3328,-0.5901,0.2517,1898,354,6,1571,-135,-455,-70,48,-47,63.2794,-79.4940,165.7626,1,0
0000988039,0,-0.6908,-0.3311,-0.5925,0.2492,1898,358,14,1619,-155,-371,-26,72,-63,64.1240,-79.6228,164.5408,1,0
0000988060,0,-0.6896,-0.3300,-0.5954,0.2472,1897,367,28,1823,-215,-323,-11,104,-88,65.5165,-79.8201,162.8626,1,0
0000988081,0,-0.6866,-0.3310,-0.5988,0.2457,1894,378,40,1979,-187,-319,-36,94,-105,68.3297,-80.0705,159.9965,1,0
0000988102,0,-0.6855,-0.3300,-0.6019,0.2427,1895,388,50,2111,-151,-355,-40,73,-97,70.2027,-80.1903,157.7593,1,0
0000988123,0,-0.6843,-0.3306,-0.6036,0.2408,1895,388,50,1979,-71,-487,-50,19,-87,71.9897,-80.2019,155.8626,1,0
0000988144,0,-0.6850,-0.3298,-0.6049,0.2369,1891,393,52,2019,-35,-455,-54,-22,-87,72.9599,-80.0545,154.4763,1,0
0000988165,0,-0.6856,-0.3291,-0.6061,0.2331,1893,403,51,2323,87,-399,-50,-5,-89,73.9171,-79.8867,153.1267,1,0
0000988186,0,-0.6847,-0.3294,-0.6080,0.2301,1892,410,56,2215,195,-603,-74,17,-75,75.7160,-79.8249,151.0905,1,0
0000988207,0,-0.6863,-0.3283,-0.6087,0.2250,1893,417,51,2111,415,-519,-106,-99,-105,76.2214,-79.5165,150.0527,1,0
0000988228,0,-0.6868,-0.3298,-0.6090,0.2207,1893,431,46,1807,391,-315,-52,-44,-146,77.5312,-79.1259,148.5098,1,0
0000988249,0,-0.6872,-0.3311,-0.6094,0.2163,1893,448,36,1727,367,-263,30,-69,-144,78.7685,-78.7390,147.0101,1,0
0000988270,0,-0.6875,-0.3332,-0.6090,0.2132,1893,461,30,1803,495,-247,83,-43,-122,79.6568,-78.3643,146.0521,1,0
0000988291,0,-0.6852,-0.3387,-0.6081,0.2144,1893,461,30,1955,563,-115,194,21,-105,81.3621,-78.1240,144.9444,1,0
0000988312,0,-0.6831,-0.3427,-0.6078,0.2157,1892,476,22,2059,539,-163,283,37,-113,82.7489,-78.0193,144.0352,1,0
0000988333,0,-0.6795,-0.3504,-0.6057,0.2205,1892,492,13,1967,331,-267,396,18,-117,84.3607,-77.8743,143.5415,1,0
0000988354,0,-0.6767,-0.3568,-0.6036,0.2245,1888,508,-2,1895,231,-291,430,33,-107,85.5193,-77.7278,143.3202,1,0
0000988375,0,-0.6738,-0.3621,-0.6022,0.2287,1888,521,-13,1715,259,-175,409,71,-81,86.6329,-77.7065,143.0603,1,0
0000988396,0,-0.6684,-0.3709,-0.5997,0.2369,1888,530,-22,1643,275,-83,369,76,-69,88.4712,-77.7748,142.7423,1,0
0000988417,0,-0.6655,-0.3751,-0.5988,0.2405,1886,543,-30,1735,227,-131,347,63,-79,89.6179,-77.8062,142.3104,1,0
0000988438,0,-0.6618,-0.3815,-0.5966,0.2458,1886,552,-40,1883,119,-287,329,30,-66,90.8345,-77.7753,142.1556,1,0
0000988459,0,-0.6603,-0.3848,-0.5953,0.2481,1886,552,-40,1947,87,-451,202,9,-50,91.2898,-77.7116,142.2081,1,0
0000988480,0,-0.6600,-0.3854,-0.5954,0.2476,1886,559,-48,1935,243,-615,-23,11,-40,91.6303,-77.6486,141.8836,1,0
0000988501,0,-0.6601,-0.3844,-0.5971,0.2449,1888,561,-43,1795,339,-603,-154,0,-45,92.2562,-77.5710,140.9235,1,0
0000988522,0,-0.6628,-0.3803,-0.5993,0.2386,1887,562,-42,1723,423,-563,-209,-61,-37,91.9938,-77.3939,140.2562,1,0
0000988543,0,-0.6652,-0.3779,-0.6001,0.2337,1891,564,-42,1695,667,-503,-202,-84,-12,91.4957,-77.1591,140.1018,1,0
0000988564,0,-0.6693,-0.3719,-0.6020,0.2265,1894,561,-42,1723,923,-483,-219,-54,5,90.3827,-76.9899,140.0322,1,0
0000988585,0,-0.6733,-0.3654,-0.6041,0.2196,1900,557,-43,1823,1191,-515,-124,-52,20,89.1836,-76.8925,140.0281,1,0
0000988606,0,-0.6748,-0.3646,-0.6034,0.2184,1904,554,-49,1879,883,-567,33,-37,9,88.4853,-76.7933,140.5543,1,0
0000988627,0,-0.6763,-0.3625,-0.6035,0.2166,1904,554,-49,1823,667,-579,26,3,8,87.8193,-76.7554,140.8743,1,0
0000988648,0,-0.6770,-0.3598,-0.6048,0.2153,1908,552,-49,1759,711,-567,-59,44,31,87.6207,-76.8834,140.7133,1,0
0000988669,0,-0.6774,-0.3581,-0.6054,0.2154,1913,546,-44,1651,699,-479,-28,5,58,87.2853,-77.0193,140.8847,1,0
0000988690,0,-0.6788,-0.3556,-0.6054,0.2151,1920,537,-48,1595,511,-335,48,8,51,86.4006,-77.1272,141.5239,1,0
0000988711,0,-0.6786,-0.3556,-0.6049,0.2170,1926,533,-44,1667,291,-171,29,11,18,86.0366,-77.2456,142.0480,1,0
0000988732,0,-0.6797,-0.3536,-0.6056,0.2150,1931,530,-48,1791,279,-139,-60,-21,-4,85.7021,-77.2360,142.0253,1,0
0000988753,0,-0.6820,-0.3507,-0.6062,0.2107,1937,528,-51,1851,267,-299,-128,-71,-20,85.1236,-77.0773,141.9744,1,0
0000988774,0,-0.6839,-0.3492,-0.6063,0.2069,1940,528,-53,1819,107,-311,-168,-85,-18,84.6927,-76.8438,141.9428,1,0
0000988795,0,-0.6873,-0.3447,-0.6071,0.2006,1940,528,-53,1935,119,-211,-238,-89,1,83.7397,-76.6108,141.9520,1,0
0000988816,0,-0.6902,-0.3392,-0.6088,0.1948,1947,524,-52,2259,-19,-255,-276,-10,48,82.9196,-76.5391,141.7736,1,0
0000988837,0,-0.6932,-0.3306,-0.6118,0.1893,1953,514,-40,2443,119,-315,-319,23,125,81.7959,-76.7633,141.6516,1,0
0000988858,0,-0.6978,-0.3199,-0.6138,0.1844,1963,490,-33,2423,371,-227,-345,-57,222,79.2559,-77.0564,142.8093,1,0
0000988879,0,-0.7030,-0.3095,-0.6143,0.1806,1976,459,-29,2039,487,-211,-393,-89,247,75.8746,-77.2965,144.9473,1,0
0000988900,0,-0.7092,-0.2971,-0.6152,0.1743,1986,429,-31,1943,391,-247,-419,-90,209,72.1626,-77.4427,147.0184,1,0
0000988921,0,-0.7152,-0.2836,-0.6164,0.1675,1997,401,-23,1907,279,-283,-444,-65,218,68.3149,-77.6228,149.1187,1,0
0000988942,0,-0.7206,-0.2700,-0.6182,0.1604,2006,369,-19,1823,251,-251,-471,-50,234,64.7790,-77.8266,150.8614,1,0
0000988963,0,-0.7250,-0.2575,-0.6198,0.1547,2006,369,-19,1771,175,-219,-482,-33,246,61.3785,-78.0681,152.7053,1,0
0000988984,0,-0.7294,-0.2436,-0.6217,0.1486,2015,337,-9,1695,-91,-211,-416,-18,254,57.5872,-78.3500,154.7852,1,0
0000989005,0,-0.7332,-0.2302,-0.6235,0.1438,2024,301,-2,1699,-159,-239,-390,15,269,53.6145,-78.6644,157.2102,1,0
0000989026,0,-0.7366,-0.2154,-0.6255,0.1406,2031,264,6,1671,-175,-227,-359,25,289,48.5997,-79.1254,160.6916,1,0
0000989047,0,-0.7393,-0.2024,-0.6273,0.1379,2041,224,17,1879,-167,-311,-297,55,289,43.9372,-79.5151,164.0361,1,0
0000989068,0,-0.7406,-0.1923,-0.6289,0.1380,2046,188,27,2071,-79,-415,-231,63,279,39.5080,-79.9213,167.6139,1,0
0000989089,0,-0.7423,-0.1818,-0.6302,0.1374,2052,156,36,2123,99,-531,-178,46,257,34.7216,-80.2186,171.4669,1,0
0000989110,0,-0.7435,-0.1726,-0.6314,0.1369,2054,128,40,1907,135,-471,-132,52,195,30.3610,-80.4485,175.0099,1,0
0000989131,0,-0.7438,-0.1662,-0.6325,0.1379,2054,128,40,1823,151,-415,-77,54,123,26.7295,-80.6820,178.1833,1,0
0000989152,0,-0.7438,-0.1621,-0.6336,0.1378,2058,113,46,1595,23,-395,40,48,79,24.7133,-80.8401,179.8605,1,0
0000989173,0,-0.7428,-0.1624,-0.6340,0.1412,2061,104,48,1563,-35,-375,132,71,54,23.4702,-81.0129,-178.5952,1,0
0000989194,0,-0.7412,-0.1625,-0.6351,0.1442,2064,101,55,1679,-67,-359,226,87,30,22.3223,-81.2674,-177.1966,1,0
0000989215,0,-0.7395,-0.1649,-0.6354,0.1492,2067,99,56,1719,-147,-287,364,56,11,21.4396,-81.4598,-175.7066,1,0
0000989236,0,-0.7360,-0.1729,-0.6349,0.1590,2069,106,58,1811,-163,-263,415,86,-23,21.3991,-81.7273,-174.1808,1,0
0000989257,0,-0.7328,-0.1788,-0.6354,0.1654,2073,118,62,1995,-203,-223,459,93,-69,21.9144,-82.0271,-173.6694,1,0
0000989278,0,-0.7287,-0.1882,-0.6352,0.1733,2073,138,61,2067,-231,-215,470,83,-117,23.9180,-82.3212,-174.2280,1,0
0000989299,0,-0.7250,-0.1965,-0.6354,0.1786,2073,138,61,2019,-211,-187,480,69,-157,26.7112,-82.5896,-175.8771,1,0
0000989320,0,-0.7213,-0.2062,-0.6351,0.1840,2075,163,60,1935,-199,-159,534,36,-186,30.5109,-82.7830,-178.4117,1,0
0000989341,0,-0.7160,-0.2224,-0.6328,0.1933,2075,190,48,1931,-211,-135,570,0,-199,36.3672,-82.8531,177.8900,1,0
0000989362,0,-0.7125,-0.2343,-0.6306,0.1993,2076,222,35,1911,-191,-147,582,-14,-208,41.0128,-82.7763,174.7695,1,0
0000989383,0,-0.7082,-0.2482,-0.6278,0.2067,2075,254,17,1895,-199,-175,587,-11,-218,46.0800,-82.6625,171.5285,1,0
0000989404,0,-0.7042,-0.2609,-0.6252,0.2125,2073,288,0,1991,-235,-143,595,-18,-240,51.0728,-82.4913,168.1266,1,0
0000989425,0,-0.7000,-0.2738,-0.6226,0.2177,2070,322,-19,2119,-195,-135,561,-24,-270,56.3343,-82.2403,164.4382,1,0
0000989446,0,-0.6939,-0.2912,-0.6193,0.2241,2064,358,-35,2179,-99,-247,485,2,-276,63.4271,-81.8606,159.4245,1,0
0000989467,0,-0.6895,-0.3015,-0.6185,0.2262,2064,358,-35,2031,119,-535,394,27,-272,68.6584,-81.6070,155.2870,1,0
0000989488,0,-0.6845,-0.3132,-0.6172,0.2289,2058,393,-47,1919,211,-339,415,7,-299,74.0152,-81.2455,151.2070,1,0
0000989509,0,-0.6794,-0.3247,-0.6163,0.2306,2048,428,-64,1743,171,-267,463,41,-329,79.3499,-80.8079,147.0497,1,0
0000989530,0,-0.6730,-0.3369,-0.6158,0.2334,2040,471,-76,1535,-35,-179,512,109,-325,84.9191,-80.4123,142.8221,1,0
0000989551,0,-0.6627,-0.3527,-0.6158,0.2393,2028,508,-81,1515,-7,-123,452,169,-307,92.3712,-80.0445,137.3221,1,0
0000989572,0,-0.6546,-0.3621,-0.6178,0.2424,2017,540,-75,1583,203,-83,403,222,-298,98.3330,-79.8406,132.4867,1,0
0000989593,0,-0.6453,-0.3717,-0.6203,0.2463,2008,575,-64,1735,403,-87,349,248,-292,104.7241,-79.6202,127.3305,1,0
0000989614,0,-0.6368,-0.3790,-0.6240,0.2480,1995,609,-49,1835,507,-47,310,260,-300,110.8542,-79.3197,122.0311,1,0
0000989635,0,-0.6281,-0.3859,-0.6280,0.2493,1995,609,-49,1963,579,11,276,277,-300,116.7867,-78.9181,116.8620,1,0
0000989656,0,-0.6163,-0.3951,-0.6329,0.2520,1983,642,-30,1983,607,27,233,270,-288,123.9949,-78.3063,110.7670,1,0
0000989677,0,-0.6076,-0.4012,-0.6370,0.2532,1969,673,-14,1915,659,19,191,261,-272,128.9856,-77.7489,106.4933,1,0
0000989698,0,-0.5988,-0.4067,-0.6412,0.2546,1956,704,8,1835,691,51,177,290,-258,133.6730,-77.1816,102.4710,1,0
0000989719,0,-0.5895,-0.4115,-0.6460,0.2564,1940,729,33,1843,679,87,171,318,-239,138.4112,-76.5983,98.3786,1,0
0000989740,0,-0.5804,-0.4160,-0.6505,0.2589,1927,756,55,1927,607,155,200,294,-203,142.7706,-76.0288,94.6981,1,0
0000989761,0,-0.5702,-0.4221,-0.6540,0.2629,1916,777,68,2011,471,179,256,229,-158,146.9839,-75.3830,91.4744,1,0
0000989782,0,-0.5634,-0.4277,-0.6545,0.2669,1907,793,72,1995,387,199,278,167,-120,149.2576,-74.9840,90.1368,1,0
0000989803,0,-0.5582,-0.4316,-0.6552,0.2700,1907,793,72,2007,347,91,149,151,-83,151.0354,-74.6874,89.0397,1,0
0000989824,0,-0.5542,-0.4329,-0.6569,0.2720,1900,801,82,1991,439,7,53,152,-57,152.7538,-74.4829,87.6432,1,0
0000989845,0,-0.5511,-0.4330,-0.6591,0.2728,1894,806,93,1927,555,11,-30,101,-58,154.2425,-74.2970,86.2563,1,0
0000989866,0,-0.5493,-0.4319,-0.6621,0.2709,1888,811,106,1819,711,3,-122,39,-78,155.1218,-74.0191,85.1141,1,0
0000989887,0,-0.5488,-0.4303,-0.6649,0.2675,1882,815,115,1731,759,103,-169,37,-84,155.3968,-73.7468,84.3930,1,0
0000989908,0,-0.5483,-0.4278,-0.6684,0.2639,1877,821,132,1767,883,151,-180,54,-83,155.8529,-73.4776,83.3804,1,0
0000989929,0,-0.5474,-0.4267,-0.6710,0.2609,1870,828,140,1779,887,259,-88,21,-91,156.1289,-73.1852,82.7500,1,0
0000989950,0,-0.5467,-0.4273,-0.6722,0.2582,1865,840,140,1775,923,235,-17,-30,-116,155.9410,-72.8734,82.7705,1,0
0000989971,0,-0.5459,-0.4300,-0.6724,0.2549,1865,840,140,1799,943,203,13,-60,-121,155.1746,-72.4295,83.5059,1,0
0000989992,0,-0.5457,-0.4327,-0.6718,0.2522,1858,854,133,1783,983,235,34,-83,-112,154.3052,-72.0864,84.4173,1,0
0000990013,0,-0.5458,-0.4358,-0.6705,0.2503,1854,864,122,1843,951,327,72,-93,-90,153.3290,-71.8105,85.5211,1,0
0000990034,0,-0.5462,-0.4391,-0.6686,0.2487,1849,875,108,1823,939,303,74,-117,-71,152.2627,-71.5848,86.7749,1,0
0000990055,0,-0.5476,-0.4420,-0.6662,0.2469,1848,886,90,1799,927,247,60,-160,-52,150.8887,-71.4175,88.2650,1,0
0000990076,0,-0.5502,-0.4453,-0.6628,0.2443,1845,893,72,1839,931,211,36,-173,-35,148.8890,-71.2460,90.3568,1,0
0000990097,0,-0.5530,-0.4468,-0.6604,0.2418,1844,898,56,1931,991,175,-19,-184,-10,147.2139,-71.1604,91.9379,1,0
0000990118,0,-0.5569,-0.4475,-0.6576,0.2391,1847,897,36,2015,1023,119,-25,-223,26,145.2574,-71.1652,93.7060,1,0
0000990139,0,-0.5620,-0.4479,-0.6538,0.2369,1847,897,36,1867,991,79,-16,-254,78,142.9084,-71.2658,95.8699,1,0
0000990160,0,-0.5678,-0.4474,-0.6496,0.2355,1849,891,13,1779,987,75,-24,-236,145,140.3950,-71.5131,98.1842,1,0
0000990181,0,-0.5754,-0.4454,-0.6444,0.2351,1858,879,-6,1807,1043,79,-33,-233,191,137.3017,-71.9872,101.0107,1,0
0000990202,0,-0.5826,-0.4432,-0.6394,0.2350,1868,862,-26,1675,939,51,-28,-280,226,134.3095,-72.4435,103.7548,1,0
0000990223,0,-0.5904,-0.4409,-0.6338,0.2352,1880,841,-53,1623,823,23,-34,-280,237,130.8424,-72.9028,106.9775,1,0
0000990244,0,-0.5978,-0.4379,-0.6289,0.2351,1890,822,-73,1639,667,-7,-63,-256,233,127.4743,-73.3147,110.0252,1,0
0000990265,0,-0.6054,-0.4344,-0.6243,0.2346,1900,799,-91,1619,587,-35,-116,-265,238,123.9487,-73.6880,113.1490,1,0
0000990286,0,-0.6154,-0.4285,-0.6193,0.2328,1909,777,-103,1591,543,-115,-179,-258,247,119.3040,-74.0922,117.0421,1,0
0000990307,0,-0.6238,-0.4222,-0.6161,0.2305,1909,777,-103,1527,535,-171,-239,-248,261,115.4611,-74.4039,120.0622,1,0
0000990328,0,-0.6323,-0.4150,-0.6133,0.2278,1918,753,-111,1491,543,-123,-272,-235,269,111.5195,-74.7117,123.0715,1,0
0000990349,0,-0.6406,-0.4066,-0.6115,0.2244,1928,727,-116,1511,551,-23,-337,-208,271,107.6552,-75.0045,125.8438,1,0
0000990370,0,-0.6486,-0.3970,-0.6109,0.2204,1937,702,-109,1575,391,-59,-410,-140,261,104.0704,-75.3273,128.1524,1,0
0000990391,0,-0.6572,-0.3836,-0.6121,0.2149,1946,678,-94,1667,227,-115,-429,-90,259,100.2701,-75.8129,130.2181,1,0
0000990412,0,-0.6634,-0.3721,-0.6140,0.2110,1953,646,-70,1839,99,-215,-444,-37,273,97.4943,-76.3123,131.5788,1,0
0000990433,0,-0.6688,-0.3598,-0.6165,0.2077,1958,616,-44,1983,99,-243,-444,-3,295,94.8394,-76.9338,132.8059,1,0
0000990454,0,-0.6742,-0.3469,-0.6190,0.2050,1966,581,-15,2219,171,-395,-448,13,325,91.8575,-77.6413,134.3610,1,0
0000990475,0,-0.6792,-0.3336,-0.6213,0.2033,1966,581,-15,2567,119,-455,-384,24,357,88.4942,-78.4292,136.3755,1,0
0000990496,0,-0.6853,-0.3176,-0.6232,0.2027,1972,538,6,2431,35,-535,-361,9,368,83.3300,-79.4008,140.0419,1,0
0000990517,0,-0.6906,-0.3047,-0.6242,0.2015,1978,494,26,1963,-127,-567,-406,-28,348,78.3259,-80.0459,143.7913,1,0
0000990538,0,-0.6965,-0.2917,-0.6248,0.1985,1981,452,37,1927,-239,-423,-456,-73,323,72.7559,-80.4603,147.9516,1,0
0000990559,0,-0.7029,-0.2781,-0.6251,0.1943,1986,413,46,2091,-351,-471,-490,-79,319,66.7020,-80.7290,152.4636,1,0
0000990580,0,-0.7090,-0.2644,-0.6255,0.1903,1987,369,57,2635,-167,-679,-454,-39,329,60.3965,-80.9507,157.2378,1,0
0000990601,0,-0.7147,-0.2470,-0.6274,0.1861,1987,331,71,2543,-87,-687,-480,25,319,52.7438,-81.3686,163.0257,1,0
0000990622,0,-0.7191,-0.2338,-0.6286,0.1820,1987,295,78,1827,-119,-439,-453,-45,262,46.9061,-81.5376,167.3810,1,0
0000990643,0,-0.7237,-0.2219,-0.6293,0.1764,1985,265,82,1587,63,-371,-476,-43,201,42.1205,-81.5044,170.6842,1,0
0000990664,0,-0.7274,-0.2112,-0.6301,0.1708,1985,265,82,1467,67,-391,-399,-41,173,38.2892,-81.4579,173.1478,1,0
0000990685,0,-0.7305,-0.2022,-0.6307,0.1664,1983,242,86,1467,135,-447,-319,-24,155,34.8622,-81.3989,175.4460,1,0
0000990706,0,-0.7334,-0.1929,-0.6312,0.1626,1979,224,91,1547,143,-419,-232,-13,134,31.1279,-81.3571,178.0816,1,0
0000990727,0,-0.7350,-0.1879,-0.6313,0.1610,1977,210,93,1635,163,-431,-135,-17,99,28.8382,-81.3122,179.8088,1,0
0000990748,0,-0.7362,-0.1853,-0.6308,0.1607,1973,201,92,1643,131,-451,-32,-24,63,27.3088,-81.2236,-178.8985,1,0
0000990769,0,-0.7364,-0.1846,-0.6304,0.1617,1971,199,93,1663,115,-463,36,11,34,26.4310,-81.2047,-177.9951,1,0
0000990790,0,-0.7356,-0.1855,-0.6307,0.1637,1966,201,98,1867,-35,-443,125,57,-3,26.0680,-81.3079,-177.3958,1,0
0000990811,0,-0.7333,-0.1886,-0.6315,0.1672,1966,201,98,2011,-163,-503,157,71,-35,26.4937,-81.5616,-177.2644,1,0
0000990832,0,-0.7312,-0.1920,-0.6321,0.1700,1961,210,104,2007,-183,-495,171,63,-55,27.4127,-81.7613,-177.6742,1,0
0000990853,0,-0.7292,-0.1959,-0.6325,0.1727,1956,219,107,1851,-255,-375,180,63,-65,28.6340,-81.9416,-178.3432,1,0
0000990874,0,-0.7266,-0.1999,-0.6335,0.1752,1950,231,113,1895,-347,-319,170,89,-79,30.2485,-82.1872,-179.4095,1,0
0000990895,0,-0.7239,-0.2037,-0.6348,0.1775,1944,243,122,1927,-515,-363,145,98,-84,32.0648,-82.4689,179.2742,1,0
0000990916,0,-0.7205,-0.2078,-0.6368,0.1796,1937,254,129,1883,-435,-319,117,102,-76,34.5549,-82.8419,177.3073,1,0
0000990937,0,-0.7178,-0.2104,-0.6385,0.1809,1932,267,141,1827,-271,-283,94,112,-86,36.5518,-83.1359,175.6329,1,0
0000990958,0,-0.7148,-0.2134,-0.6407,0.1816,1923,280,150,1787,-51,-243,100,119,-112,39.4788,-83.4635,173.0168,1,0
0000990979,0,-0.7114,-0.2174,-0.6429,0.1826,1923,280,150,1759,43,-251,149,129,-130,43.3715,-83.7750,169.5369,1,0
0000991000,0,-0.7071,-0.2225,-0.6453,0.1847,1915,301,160,1799,67,-239,230,168,-142,48.1715,-84.1287,165.3418,1,0
0000991021,0,-0.7005,-0.2307,-0.6483,0.1892,1905,322,172,1927,-31,-119,313,185,-159,55.8357,-84.5935,158.7478,1,0
0000991042,0,-0.6944,-0.2389,-0.6506,0.1937,1894,347,183,1995,-119,-47,344,186,-178,63.6711,-84.8982,151.9866,1,0
0000991063,0,-0.6887,-0.2466,-0.6526,0.1975,1884,374,193,1855,-119,-83,288,162,-178,72.0029,-85.0551,144.6363,1,0
0000991084,0,-0.6832,-0.2538,-0.6549,0.2002,1870,400,203,1783,-191,-71,257,174,-193,80.8870,-85.0884,136.5931,1,0
0000991105,0,-0.6772,-0.2605,-0.6577,0.2021,1857,430,218,1619,-183,23,183,206,-226,90.6389,-85.0067,127.5899,1,0
0000991126,0,-0.6697,-0.2661,-0.6633,0.2017,1840,451,241,1615,-7,19,48,242,-206,103.6474,-84.7473,115.0288,1,0
0000991147,0,-0.6632,-0.2703,-0.6682,0.2016,1840,451,241,1559,-51,99,129,258,-214,113.6638,-84.4178,105.3627,1,0
0000991168,0,-0.6564,-0.2747,-0.6732,0.2013,1825,478,264,1543,-43,127,75,260,-236,122.5515,-83.8968,96.8430,1,0
0000991189,0,-0.6494,-0.2783,-0.6790,0.1993,1803,505,290,1519,11,155,27,286,-269,130.3082,-83.1578,89.2464,1,0
0000991210,0,-0.6412,-0.2824,-0.6857,0.1971,1780,534,321,1587,0,183,50,349,-314,137.4147,-82.1996,82.3266,1,0
0000991231,0,-0.6297,-0.2880,-0.6951,0.1936,1751,569,357,1795,51,199,14,355,-359,144.6848,-80.6823,75.2691,1,0
0000991252,0,-0.6205,-0.2925,-0.7027,0.1891,1719,603,389,1971,151,203,-10,330,-390,148.4783,-79.2827,71.5203,1,0
0000991273,0,-0.6115,-0.2969,-0.7101,0.1836,1685,640,424,2175,439,11,-51,311,-403,151.0049,-77.8086,68.9550,1,0
0000991294,0,-0.6034,-0.2994,-0.7179,0.1759,1650,668,461,2155,915,-59,-213,283,-411,152.6405,-76.3226,66.9281,1,0
0000991315,0,-0.5962,-0.2984,-0.7269,0.1646,1650,668,461,2271,1123,-99,-393,301,-427,153.6298,-74.7972,64.9482,1,0
0000991336,0,-0.5861,-0.2970,-0.7384,0.1517,1614,690,508,2235,911,-63,-214,320,-373,155.0461,-72.8787,62.3852,1,0
0000991357,0,-0.5785,-0.2983,-0.7451,0.1457,1576,711,540,1895,367,207,-122,264,-284,156.0412,-71.6116,61.0467,1,0
0000991378,0,-0.5725,-0.2958,-0.7519,0.1393,1552,722,574,1887,327,351,-355,268,-195,157.0753,-70.6153,59.3006,1,0
0000991399,0,-0.5668,-0.2867,-0.7611,0.1314,1523,709,629,1887,523,499,-566,356,-109,158.8423,-69.7365,56.1108,1,0
0000991420,0,-0.5607,-0.2737,-0.7717,0.1237,1497,680,691,1895,619,531,-635,354,-13,161.1950,-68.9045,52.0214,1,0
0000991462,0,-0.5535,-0.2442,-0.7882,0.1128,1469,602,772,1815,427,571,-452,194,146,165.6662,-68.0653,44.1349,1,0
0000991483,0,-0.5526,-0.2300,-0.7935,0.1101,1469,602,772,1771,419,491,-583,157,207,167.7376,-68.0616,40.6221,1,0
0000991504,0,-0.5528,-0.2125,-0.7987,0.1061,1464,545,812,1863,479,503,-670,129,226,169.8692,-68.1580,36.6591,1,0
0000991525,0,-0.5535,-0.1949,-0.8033,0.1018,1460,485,845,1931,435,667,-657,95,214,171.8800,-68.2629,32.7907,1,0
0000991546,0,-0.5550,-0.1723,-0.8082,0.0952,1459,424,875,1883,431,651,-724,54,213,174.1798,-68.4203,28.0264,1,0
0000991567,0,-0.5574,-0.1529,-0.8112,0.0888,1458,354,898,1835,543,603,-770,-9,210,175.8273,-68.6654,24.2021,1,0
0000991588,0,-0.5604,-0.1330,-0.8135,0.0811,1462,284,917,1839,659,639,-792,-16,179,177.2595,-68.9483,20.4542,1,0
0000991609,0,-0.5622,-0.1149,-0.8156,0.0736,1460,223,932,1943,623,755,-686,15,145,178.5286,-69.0799,17.0445,1,0
0000991630,0,-0.5637,-0.1002,-0.8171,0.0676,1462,177,940,2055,507,735,-496,-42,125,179.5939,-69.1858,14.2675,1,0
0000991651,0,-0.5674,-0.0868,-0.8164,0.0631,1462,177,940,2135,503,659,-316,-130,135,180.7473,-69.6211,11.6187,1,0
0000991672,0,-0.5715,-0.0812,-0.8141,0.0633,1473,149,931,2103,527,643,-91,-169,149,181.7281,-70.1892,10.1799,1,0
0000991693,0,-0.5753,-0.0794,-0.8114,0.0662,1485,133,918,2011,583,627,60,-150,138,182.7867,-70.7436,9.2025,1,0
0000991714,0,-0.5782,-0.0815,-0.8087,0.0710,1499,130,903,1823,631,667,236,-128,106,183.6727,-71.2120,8.8731,1,0
0000991735,0,-0.5803,-0.0886,-0.8058,0.0781,1509,154,886,1735,395,775,507,-126,40,184.1923,-71.6294,9.5245,1,0
0000991756,0,-0.5822,-0.1041,-0.8014,0.0893,1522,191,865,1683,271,827,623,-139,0,184.1057,-72.1325,11.8054,1,0
0000991777,0,-0.5837,-0.1185,-0.7972,0.0985,1534,238,838,1795,447,811,657,-160,-26,183.5771,-72.5627,14.2880,1,0
0000991798,0,-0.5850,-0.1343,-0.7925,0.1081,1545,287,804,1963,775,807,737,-153,-40,182.7857,-72.9958,17.1801,1,0
0000991819,0,-0.5857,-0.1530,-0.7870,0.1193,1545,287,804,1967,763,831,878,-170,-62,181.7079,-73.3994,20.7322,1,0
0000991840,0,-0.5861,-0.1745,-0.7803,0.1311,1558,351,766,1975,595,751,929,-199,-112,180.0102,-73.8183,25.2059,1,0
0000991861,0,-0.5861,-0.2007,-0.7717,0.1439,1570,416,718,1887,591,567,840,-178,-135,177.2176,-74.2271,31.2658,1,0
0000991882,0,-0.5854,-0.2202,-0.7651,0.1532,1580,474,676,1795,479,447,823,-153,-118,175.0153,-74.4160,35.8939,1,0
0000991903,0,-0.5842,-0.2391,-0.7583,0.1631,1586,526,629,1735,515,499,819,-131,-91,173.1067,-74.5654,40.2469,1,0
0000991924,0,-0.5820,-0.2572,-0.7516,0.1737,1592,574,587,1719,511,487,836,-81,-67,171.6843,-74.6334,44.1276,1,0
0000991945,0,-0.5786,-0.2757,-0.7448,0.1855,1593,619,539,1855,439,407,880,-51,-56,170.7157,-74.6293,47.7119,1,0
0000991966,0,-0.5744,-0.2979,-0.7358,0.1999,1599,660,492,1943,455,163,822,-87,-36,169.5198,-74.6570,52.0894,1,0
0000991987,0,-0.5715,-0.3148,-0.7277,0.2116,1599,660,492,1883,399,83,848,-78,0,168.6078,-74.7827,55.5114,1,0
0000992008,0,-0.5676,-0.3313,-0.7195,0.2244,1605,695,442,1783,339,99,846,-37,22,168.1986,-74.9102,58.5100,1,0
0000992029,0,-0.5636,-0.3462,-0.7116,0.2368,1608,724,397,1763,323,111,771,-28,34,168.0719,-75.0427,61.0656,1,0
0000992050,0,-0.5600,-0.3598,-0.7038,0.2481,1614,747,354,1767,263,179,714,-47,35,167.8502,-75.2036,63.5258,1,0
0000992071,0,-0.5564,-0.3745,-0.6947,0.2601,1620,766,313,1735,279,195,573,-59,38,167.2806,-75.4203,66.5061,1,0
0000992092,0,-0.5544,-0.3833,-0.6885,0.2678,1627,776,281,1823,275,187,462,-48,53,166.9133,-75.6204,68.3860,1,0
0000992113,0,-0.5531,-0.3901,-0.6830,0.2745,1633,778,254,1871,331,43,373,-57,78,166.6022,-75.8718,69.9314,1,0
0000992134,0,-0.5526,-0.3952,-0.6781,0.2804,1642,781,233,1855,359,7,313,-47,91,166.3031,-76.1880,71.2320,1,0
0000992155,0,-0.5519,-0.3996,-0.6737,0.2861,1642,781,233,1763,311,59,271,-30,83,166.2457,-76.4802,72.2050,1,0
0000992176,0,-0.5518,-0.4038,-0.6689,0.2916,1647,780,216,1871,247,103,202,-64,80,165.9113,-76.8281,73.4323,1,0
0000992197,0,-0.5531,-0.4058,-0.6652,0.2947,1653,775,198,1971,139,115,116,-95,105,165.1392,-77.1799,74.6556,1,0
0000992218,0,-0.5564,-0.4054,-0.6619,0.2964,1664,766,184,2083,11,107,-8,-135,160,164.0053,-77.6816,75.8856,1,0
0000992239,0,-0.5624,-0.4019,-0.6589,0.2968,1679,743,176,2023,-11,115,-161,-181,227,162.3162,-78.4154,77.2345,1,0
0000992260,0,-0.5708,-0.3950,-0.6564,0.2955,1697,711,171,1951,91,119,-317,-210,284,160.0434,-79.3495,78.6840,1,0
0000992281,0,-0.5838,-0.3820,-0.6546,0.2912,1718,673,172,2019,315,-31,-482,-231,322,156.4492,-80.6644,80.6060,1,0
0000992302,0,-0.5954,-0.3698,-0.6532,0.2864,1741,628,173,2087,475,-127,-526,-260,334,152.4525,-81.7743,82.9923,1,0
0000992323,0,-0.6076,-0.3572,-0.6514,0.2809,1741,628,173,2015,639,-155,-546,-290,330,146.7371,-82.8637,87.0140,1,0
0000992344,0,-0.6198,-0.3448,-0.6494,0.2745,1759,586,168,1867,599,15,-552,-304,303,138.8389,-83.8131,93.1841,1,0
0000992365,0,-0.6317,-0.3328,-0.6472,0.2671,1780,545,160,1815,535,83,-572,-321,269,128.3548,-84.5224,101.9045,1,0
0000992386,0,-0.6462,-0.3176,-0.6447,0.2567,1797,508,153,1975,435,119,-580,-305,245,112.5423,-85.0615,115.4249,1,0
0000992407,0,-0.6572,-0.3060,-0.6424,0.2486,1814,471,140,2067,419,87,-546,-309,247,98.6702,-85.1954,127.5489,1,0
0000992428,0,-0.6676,-0.2944,-0.6399,0.2411,1828,437,127,1879,391,0,-520,-283,254,84.8952,-85.1326,139.6538,1,0
0000992449,0,-0.6773,-0.2840,-0.6367,0.2349,1842,403,108,1707,91,99,-417,-300,248,71.9047,-84.8382,151.1913,1,0
0000992470,0,-0.6866,-0.2750,-0.6325,0.2299,1855,371,92,1651,-23,171,-376,-296,244,60.7787,-84.2912,161.1137,1,0
0000992491,0,-0.6972,-0.2621,-0.6290,0.2229,1855,371,92,1767,107,135,-468,-207,247,49.9814,-83.6215,170.1974,1,0
0000992512,0,-0.7044,-0.2517,-0.6269,0.2179,1864,337,83,2031,187,-19,-363,-191,243,42.9802,-83.1415,175.8717,1,0
0000992533,0,-0.7106,-0.2453,-0.6228,0.2167,1873,308,66,2203,-103,-339,-95,-225,223,37.1714,-82.5132,-178.9573,1,0
0000992554,0,-0.7157,-0.2412,-0.6183,0.2175,1880,285,46,1899,-371,-567,-121,-159,209,32.6401,-81.8741,-174.6897,1,0
0000992575,0,-0.7201,-0.2330,-0.6174,0.2147,1886,260,44,1759,-339,-443,-400,-53,173,28.6584,-81.5399,-171.6430,1,0
0000992596,0,-0.7255,-0.2218,-0.6175,0.2077,1889,240,44,1559,-427,-251,-384,-90,135,25.1469,-81.1600,-169.6813,1,0
0000992617,0,-0.7298,-0.2137,-0.6170,0.2027,1894,221,39,1491,-675,-291,-321,-90,139,22.7869,-80.8024,-168.4237,1,0
0000992638,0,-0.7338,-0.2068,-0.6157,0.1993,1897,199,37,1759,-615,-419,-272,-94,161,20.4155,-80.4055,-166.9199,1,0
0000992659,0,-0.7375,-0.1987,-0.6150,0.1959,1897,199,37,2011,-323,-619,-311,-47,174,17.5816,-80.0635,-165.0520,1,0
0000992680,0,-0.7407,-0.1908,-0.6148,0.1924,1900,177,35,1971,-123,-415,-291,-53,138,15.0676,-79.7807,-163.4979,1,0
0000992701,0,-0.7436,-0.1843,-0.6143,0.1889,1903,160,35,1855,-91,-359,-197,-55,95,13.3468,-79.5060,-162.6138,1,0
0000992722,0,-0.7460,-0.1801,-0.6133,0.1866,1905,149,31,1843,-155,-407,-88,-58,50,12.2766,-79.2192,-162.0866,1,0
0000992743,0,-0.7476,-0.1787,-0.6122,0.1856,1908,144,25,1895,-63,-459,-52,-65,24,12.0839,-79.0023,-162.0912,1,0
0000992764,0,-0.7488,-0.1786,-0.6108,0.1851,1907,145,16,1927,79,-443,20,-72,2,12.2626,-78.7827,-162.3072,1,0
0000992785,0,-0.7496,-0.1806,-0.6090,0.1862,1910,149,6,1827,75,-367,122,-72,-21,12.8172,-78.5784,-162.5995,1,0
0000992806,0,-0.7495,-0.1860,-0.6064,0.1898,1909,159,-1,1787,27,-347,239,-63,-57,13.9639,-78.3781,-162.9847,1,0
0000992827,0,-0.7485,-0.1924,-0.6042,0.1940,1909,159,-1,1819,-23,-363,315,-51,-87,15.3348,-78.2863,-163.4503,1,0
0000992848,0,-0.7470,-0.2004,-0.6018,0.1992,1911,172,-13,1839,-59,-371,381,-59,-103,16.9785,-78.2083,-163.9767,1,0
0000992869,0,-0.7452,-0.2098,-0.5988,0.2054,1911,187,-27,1843,-107,-355,448,-66,-118,18.8673,-78.1133,-164.5309,1,0
0000992890,0,-0.7428,-0.2205,-0.5953,0.2126,1910,205,-44,1843,-179,-379,516,-73,-135,20.9882,-78.0070,-165.1243,1,0
0000992911,0,-0.7390,-0.2360,-0.5901,0.2234,1911,227,-64,1867,-243,-351,603,-75,-154,23.9317,-77.8676,-165.7995,1,0
0000992932,0,-0.7354,-0.2494,-0.5856,0.2325,1906,249,-87,1871,-283,-307,635,-76,-169,26.4732,-77.7567,-166.3831,1,0
0000992953,0,-0.7312,-0.2634,-0.5808,0.2420,1907,270,-108,1891,-323,-327,653,-69,-182,29.1755,-77.6633,-167.0428,1,0
0000992974,0,-0.7266,-0.2776,-0.5760,0.2515,1902,294,-132,1875,-367,-323,665,-63,-186,31.9587,-77.5935,-167.7442,1,0
0000992995,0,-0.7216,-0.2919,-0.5709,0.2611,1902,294,-132,1831,-439,-259,691,-70,-194,34.7177,-77.5085,-168.3817,1,0
0000993016,0,-0.7147,-0.3105,-0.5641,0.2731,1900,317,-158,1807,-527,-219,682,-61,-214,38.4602,-77.4079,-169.3979,1,0
0000993037,0,-0.7087,-0.3249,-0.5591,0.2820,1893,339,-181,1847,-659,-171,639,-46,-225,41.5665,-77.3635,-170.4134,1,0
0000993058,0,-0.7029,-0.3383,-0.5546,0.2896,1888,362,-204,1943,-775,-171,575,-49,-217,44.7140,-77.3278,-171.6483,1,0
0000993079,0,-0.6980,-0.3501,-0.5502,0.2958,1883,384,-225,2067,-747,-179,469,-70,-198,47.5313,-77.2189,-172.8126,1,0
0000993100,0,-0.6944,-0.3600,-0.5460,0.3002,1877,399,-249,2039,-575,-247,351,-95,-158,49.9706,-77.0140,-173.9276,1,0
0000993121,0,-0.6911,-0.3702,-0.5413,0.3038,1874,414,-268,1971,-443,-311,302,-103,-142,52.6073,-76.6905,-175.2603,1,0
0000993142,0,-0.6889,-0.3778,-0.5376,0.3061,1867,427,-288,1771,-375,-347,275,-101,-147,54.5170,-76.4037,-176.2318,1,0
0000993163,0,-0.6865,-0.3851,-0.5345,0.3077,1867,427,-288,1803,-455,-291,235,-83,-165,56.5401,-76.1474,-177.4023,1,0
0000993184,0,-0.6842,-0.3912,-0.5329,0.3079,1863,443,-303,1859,-535,-299,133,-54,-166,58.6976,-75.9685,-178.9498,1,0
0000993205,0,-0.6832,-0.3949,-0.5327,0.3060,1854,457,-311,1815,-511,-347,-34,-55,-146,60.5452,-75.8021,179.3746,1,0
0000993226,0,-0.6831,-0.3965,-0.5342,0.3013,1849,471,-313,1803,-507,-195,-105,-19,-106,62.4014,-75.6388,177.2501,1,0
0000993247,0,-0.6835,-0.3951,-0.5371,0.2972,1847,481,-303,1931,-283,-175,-274,49,-71,63.3542,-75.6916,175.7690,1,0
0000993268,0,-0.6848,-0.3905,-0.5422,0.2908,1844,488,-283,1859,-175,-231,-372,60,-43,63.9984,-75.8695,174.0784,1,0
0000993289,0,-0.6866,-0.3853,-0.5474,0.2838,1843,495,-261,1995,-143,-271,-396,48,-39,64.5831,-76.0101,172.3504,1,0
0000993310,0,-0.6890,-0.3790,-0.5530,0.2755,1840,499,-241,2071,23,-399,-490,31,-33,65.0751,-76.1171,170.5031,1,0
0000993331,0,-0.6934,-0.3695,-0.5603,0.2623,1840,499,-241,1983,59,-375,-580,-6,-31,65.5873,-76.1155,167.8998,1,0
0000993352,0,-0.6973,-0.3612,-0.5662,0.2505,1840,504,-219,1823,43,-287,-614,-13,-45,66.0206,-76.0604,165.6496,1,0
0000993373,0,-0.7012,-0.3529,-0.5721,0.2376,1835,511,-197,1743,79,-271,-643,-27,-61,66.6420,-75.9426,163.1182,1,0
0000993394,0,-0.7051,-0.3440,-0.5781,0.2242,1833,519,-175,1711,155,-319,-670,-28,-53,67.2247,-75.8090,160.5422,1,0
0000993415,0,-0.7091,-0.3344,-0.5841,0.2103,1829,519,-152,1759,431,-383,-697,-20,-36,67.6294,-75.6895,158.0498,1,0
0000993436,0,-0.7133,-0.3217,-0.5919,0.1934,1828,521,-125,1827,719,-363,-670,21,-31,68.1162,-75.6552,154.9574,1,0
0000993457,0,-0.7156,-0.3120,-0.5982,0.1808,1825,524,-94,1847,831,-339,-625,41,-36,68.7512,-75.6994,152.3701,1,0
0000993478,0,-0.7171,-0.3032,-0.6044,0.1693,1821,525,-67,1855,779,-319,-562,66,-43,69.5909,-75.7847,149.7552,1,0
0000993499,0,-0.7178,-0.2951,-0.6101,0.1594,1821,525,-67,1935,715,-379,-494,81,-28,70.4695,-75.9241,147.3151,1,0
0000993520,0,-0.7182,-0.2876,-0.6153,0.1512,1819,526,-39,1887,675,-399,-431,81,4,71.1887,-76.1209,145.2358,1,0
0000993541,0,-0.7192,-0.2777,-0.6207,0.1424,1816,518,-15,1775,615,-347,-417,63,55,71.3612,-76.4080,143.4547,1,0
0000993562,0,-0.7198,-0.2691,-0.6252,0.1363,1818,506,8,1883,615,-327,-415,105,84,71.3070,-76.7520,142.2377,1,0
0000993583,0,-0.7201,-0.2600,-0.6299,0.1306,1818,489,34,1979,627,-411,-408,96,103,71.2275,-77.1919,141.0442,1,0
0000993604,0,-0.7213,-0.2514,-0.6330,0.1257,1821,474,52,1887,375,-275,-356,31,114,70.4830,-77.5290,140.6304,1,0
0000993625,0,-0.7227,-0.2427,-0.6358,0.1205,1821,456,71,1871,383,-203,-407,40,116,69.5375,-77.8298,140.3998,1,0
0000993646,0,-0.7246,-0.2294,-0.6401,0.1122,1825,434,88,1907,547,-267,-498,33,139,68.2267,-78.2712,139.8824,1,0
0000993667,0,-0.7268,-0.2181,-0.6427,0.1055,1825,434,88,1967,559,-331,-473,-12,162,66.5324,-78.5854,140.0572,1,0
0000993688,0,-0.7297,-0.2071,-0.6441,0.0992,1828,410,102,1927,575,-355,-456,-51,167,64.1355,-78.8194,140.9989,1,0
0000993709,0,-0.7326,-0.1967,-0.6449,0.0931,1831,384,109,1847,531,-259,-416,-51,155,61.6282,-78.9890,142.1361,1,0
0000993730,0,-0.7352,-0.1870,-0.6457,0.0875,1837,363,117,1831,639,-239,-397,-52,143,59.2810,-79.1360,143.2071,1,0
0000993751,0,-0.7382,-0.1761,-0.6461,0.0813,1840,343,118,1819,759,-239,-318,-56,131,56.3731,-79.2756,144.6972,1,0
0000993772,0,-0.7402,-0.1697,-0.6459,0.0782,1845,325,120,1839,763,-235,-203,-54,112,54.2485,-79.3350,146.0257,1,0
0000993793,0,-0.7418,-0.1655,-0.6453,0.0769,1847,310,118,1875,687,-279,-94,-49,91,52.4499,-79.3648,147.3766,1,0
0000993814,0,-0.7431,-0.1632,-0.6443,0.0771,1848,305,111,1971,667,-283,-21,-49,73,50.8981,-79.3657,148.7606,1,0
0000993835,0,-0.7443,-0.1624,-0.6430,0.0782,1848,305,111,2039,643,-279,68,-70,55,49.5535,-79.3155,150.1252,1,0
0000993856,0,-0.7461,-0.1640,-0.6401,0.0818,1851,301,101,2019,559,-319,171,-97,44,47.8267,-79.1180,152.2856,1,0
0000993877,0,-0.7476,-0.1670,-0.6370,0.0864,1852,298,84,1871,471,-319,239,-112,47,46.4414,-78.8888,154.3014,1,0
0000993898,0,-0.7491,-0.1708,-0.6334,0.0920,1857,298,66,1867,479,-275,282,-109,52,45.0099,-78.6367,156.5138,1,0
0000993919,0,-0.7503,-0.1753,-0.6298,0.0985,1858,297,46,1879,563,-287,333,-105,45,43.7196,-78.4007,158.7234,1,0
0000993940,0,-0.7513,-0.1815,-0.6255,0.1064,1863,298,21,1879,635,-311,452,-127,26,42.6248,-78.1011,161.0027,1,0
0000993961,0,-0.7523,-0.1918,-0.6191,0.1183,1863,305,-6,1903,667,-275,537,-132,1,41.6491,-77.6414,163.8353,1,0
0000993982,0,-0.7523,-0.2023,-0.6136,0.1288,1865,315,-34,1871,599,-195,604,-121,-34,41.5082,-77.2544,165.7432,1,0
0000994003,0,-0.7517,-0.2141,-0.6079,0.1398,1865,315,-34,1811,523,-207,644,-123,-70,41.8819,-76.8529,167.2960,1,0
0000994024,0,-0.7505,-0.2269,-0.6021,0.1510,1864,327,-64,1767,411,-243,680,-107,-89,42.6978,-76.4601,168.5275,1,0
0000994045,0,-0.7485,-0.2403,-0.5963,0.1628,1863,342,-96,1771,391,-271,709,-89,-95,43.6864,-76.1261,169.6850,1,0
0000994066,0,-0.7452,-0.2575,-0.5888,0.1780,1862,355,-125,1775,383,-247,733,-78,-107,45.0228,-75.7462,171.1359,1,0
0000994087,0,-0.7418,-0.2717,-0.5829,0.1901,1857,369,-156,1735,359,-283,735,-63,-127,46.4150,-75.4906,172.0255,1,0
0000994108,0,-0.7378,-0.2860,-0.5772,0.2017,1855,386,-181,1663,355,-339,723,-58,-147,48.0488,-75.2629,172.6508,1,0
0000994129,0,-0.7334,-0.3007,-0.5713,0.2130,1849,403,-212,1779,275,-367,735,-55,-174,49.8959,-75.0270,173.0860,1,0
0000994150,0,-0.7282,-0.3158,-0.5656,0.2241,1845,421,-239,1947,187,-507,729,-25,-196,52.0845,-74.8297,173.2153,1,0
0000994171,0,-0.7206,-0.3342,-0.5589,0.2378,1845,421,-239,1963,127,-579,737,3,-192,54.8752,-74.7010,173.2998,1,0
0000994192,0,-0.7136,-0.3492,-0.5535,0.2500,1837,436,-261,1959,-139,-447,798,27,-186,57.0812,-74.6893,173.5335,1,0
0000994213,0,-0.7058,-0.3639,-0.5480,0.2630,1831,453,-286,1939,-303,-419,781,64,-174,59.1723,-74.7721,173.9588,1,0
0000994234,0,-0.6976,-0.3767,-0.5438,0.2751,1826,465,-302,1867,-247,-499,685,113,-153,61.1665,-75.0151,174.2370,1,0
0000994255,0,-0.6895,-0.3880,-0.5403,0.2864,1821,472,-315,1887,-331,-463,640,125,-141,62.9799,-75.3362,174.4948,1,0
0000994276,0,-0.6796,-0.4006,-0.5366,0.2996,1819,481,-321,1883,-443,-359,565,131,-118,65.1749,-75.7728,174.6871,1,0
0000994297,0,-0.6726,-0.4082,-0.5343,0.3091,1817,486,-326,1767,-491,-267,457,151,-69,66.3451,-76.1810,175.0984,1,0
0000994318,0,-0.6665,-0.4129,-0.5336,0.3172,1817,486,-317,1735,-435,-255,335,189,-29,67.0818,-76.7004,175.5551,1,0
0000994339,0,-0.6613,-0.4151,-0.5343,0.3238,1817,486,-317,1811,-399,-283,197,197,-15,67.4091,-77.2965,176.0281,1,0
0000994360,0,-0.6575,-0.4154,-0.5362,0.3281,1817,486,-303,1851,-343,-383,52,184,-9,67.6615,-77.8664,176.1776,1,0
0000994381,0,-0.6539,-0.4138,-0.5401,0.3308,1818,486,-285,1863,-395,-375,-21,183,-8,68.0639,-78.5638,175.8325,1,0
0000994402,0,-0.6519,-0.4114,-0.5438,0.3317,1818,487,-264,1895,-535,-263,-102,174,-1,68.2389,-79.1007,175.4761,1,0
0000994423,0,-0.6514,-0.4073,-0.5481,0.3308,1820,488,-243,1971,-631,-155,-222,141,15,68.1373,-79.5668,175.0746,1,0
0000994444,0,-0.6526,-0.4012,-0.5531,0.3275,1821,486,-216,2031,-707,-119,-338,114,53,67.6818,-79.9487,174.6138,1,0
0000994465,0,-0.6555,-0.3928,-0.5581,0.3233,1824,476,-190,2083,-751,-83,-474,94,123,66.0904,-80.2914,174.9952,1,0
0000994486,0,-0.6617,-0.3789,-0.5650,0.3153,1830,457,-163,2163,-587,-91,-580,51,171,62.8254,-80.6109,176.1848,1,0
0000994507,0,-0.6681,-0.3662,-0.5697,0.3082,1830,457,-163,2179,-463,-79,-605,22,202,59.0563,-80.7336,178.1099,1,0
0000994528,0,-0.6752,-0.3529,-0.5738,0.3005,1835,435,-140,2071,-219,-215,-629,-10,218,54.9229,-80.7366,-179.6906,1,0
0000994549,0,-0.6824,-0.3397,-0.5774,0.2924,1842,411,-123,2007,-175,-279,-608,-27,207,50.8996,-80.6598,-177.6151,1,0
0000994570,0,-0.6894,-0.3275,-0.5803,0.2842,1846,389,-109,1987,-151,-295,-582,-61,174,47.3458,-80.4773,-175.8944,1,0
0000994591,0,-0.6978,-0.3135,-0.5831,0.2734,1851,369,-102,2019,-107,-347,-543,-90,145,43.8857,-80.1383,-174.6452,1,0
0000994612,0,-0.7042,-0.3040,-0.5843,0.2651,1854,353,-99,1963,-95,-379,-496,-114,118,41.8151,-79.7735,-174.1591,1,0
0000994633,0,-0.7102,-0.2955,-0.5852,0.2565,1856,342,-98,1871,-107,-359,-473,-120,85,40.3837,-79.3750,-174.2224,1,0
0000994654,0,-0.7155,-0.2878,-0.5863,0.2479,1858,336,-96,1779,-179,-339,-460,-100,50,39.5405,-79.0231,-174.8071,1,0
0000994675,0,-0.7203,-0.2806,-0.5877,0.2388,1858,336,-96,1755,-191,-371,-473,-89,17,39.1374,-78.7188,-175.8271,1,0
0000994696,0,-0.7258,-0.2716,-0.5900,0.2267,1857,330,-93,1795,-187,-439,-477,-83,4,39.0373,-78.3938,-177.5461,1,0
0000994717,0,-0.7300,-0.2646,-0.5918,0.2168,1858,329,-90,1803,-163,-435,-494,-82,-8,39.1020,-78.1287,-179.0809,1,0
0000994738,0,-0.7339,-0.2572,-0.5939,0.2060,1856,327,-85,1839,-131,-491,-515,-67,-19,39.3320,-77.9026,179.1360,1,0
0000994759,0,-0.7374,-0.2501,-0.5962,0.1956,1858,327,-78,1819,-155,-539,-484,-57,-21,39.5894,-77.7071,177.3717,1,0
0000994780,0,-0.7407,-0.2431,-0.5982,0.1855,1856,323,-71,1791,-51,-571,-488,-51,-14,39.7683,-77.5246,175.7405,1,0
0000994801,0,-0.7445,-0.2344,-0.6007,0.1730,1856,323,-65,1799,87,-635,-451,-60,-18,39.9480,-77.3077,173.7477,1,0
0000994822,0,-0.7471,-0.2290,-0.6020,0.1645,1855,325,-62,1835,75,-683,-348,-55,-39,40.2539,-77.1056,172.2694,1,0
0000994843,0,-0.7489,-0.2255,-0.6030,0.1571,1855,325,-62,1755,-55,-655,-289,-50,-69,40.8998,-76.9089,170.7031,1,0
0000994864,0,-0.7500,-0.2230,-0.6042,0.1504,1853,332,-59,1631,-163,-643,-244,-15,-85,41.9000,-76.7724,168.9292,1,0
0000994885,0,-0.7506,-0.2211,-0.6057,0.1447,1851,338,-51,1607,-199,-687,-202,7,-72,42.8747,-76.6986,167.3148,1,0
0000994906,0,-0.7506,-0.2190,-0.6078,0.1389,1849,343,-46,1687,-311,-711,-163,26,-67,44.0634,-76.6998,165.4598,1,0
0000994927,0,-0.7504,-0.2176,-0.6093,0.1350,1849,348,-35,1715,-359,-571,-161,34,-61,44.8950,-76.7243,164.1809,1,0
0000994948,0,-0.7501,-0.2158,-0.6112,0.1310,1845,352,-27,1899,-263,-515,-171,45,-54,45.6950,-76.7817,162.8840,1,0
0000994969,0,-0.7497,-0.2144,-0.6130,0.1275,1847,356,-18,2159,-147,-551,-126,26,-51,46.5189,-76.8477,161.6471,1,0
0000994990,0,-0.7499,-0.2132,-0.6138,0.1241,1844,357,-15,2295,7,-583,-154,-14,-50,47.1170,-76.7874,160.6654,1,0
0000995011,0,-0.7503,-0.2114,-0.6149,0.1194,1844,357,-15,2459,87,-471,-130,8,-41,47.8152,-76.7081,159.4186,1,0
0000995032,0,-0.7497,-0.2098,-0.6167,0.1167,1845,359,-10,2263,243,-691,-136,83,-26,48.4529,-76.8163,158.4256,1,0
0000995053,0,-0.7487,-0.2073,-0.6194,0.1132,1842,361,3,1743,375,-515,-188,43,-36,49.2321,-77.0160,157.1363,1,0
0000995074,0,-0.7496,-0.2057,-0.6196,0.1089,1842,363,4,1431,431,-155,-122,-60,-53,49.6055,-76.8337,156.2715,1,0
0000995095,0,-0.7495,-0.2075,-0.6192,0.1086,1842,368,2,1427,299,-75,197,14,-49,50.2035,-76.7152,155.8031,1,0
0000995116,0,-0.7481,-0.2132,-0.6181,0.1135,1842,374,-3,1595,347,-107,227,4,-36,50.9517,-76.6942,155.9450,1,0
0000995137,0,-0.7473,-0.2175,-0.6169,0.1173,1843,380,-10,1911,483,-167,244,-10,-28,51.3348,-76.6428,156.2437,1,0
0000995158,0,-0.7458,-0.2233,-0.6155,0.1230,1840,388,-16,2155,411,-219,341,30,-40,51.8824,-76.6465,156.6628,1,0
0000995179,0,-0.7435,-0.2297,-0.6147,0.1288,1840,388,-16,2215,467,-491,318,52,-71,52.8473,-76.7088,156.7214,1,0
0000995200,0,-0.7409,-0.2372,-0.6137,0.1348,1839,400,-20,2187,419,-503,440,32,-96,54.2032,-76.7372,156.5122,1,0
0000995221,0,-0.7379,-0.2488,-0.6106,0.1444,1836,414,-33,1867,527,-311,473,-17,-81,55.6210,-76.6276,156.8947,1,0
0000995242,0,-0.7358,-0.2586,-0.6070,0.1525,1836,424,-53,1611,707,-127,512,-29,-90,56.5145,-76.4492,157.5295,1,0
0000995263,0,-0.7329,-0.2696,-0.6035,0.1607,1834,442,-71,1555,683,-91,537,-4,-148,57.9248,-76.2637,157.7708,1,0
0000995284,0,-0.7289,-0.2820,-0.6007,0.1682,1828,466,-88,1683,571,-147,540,26,-212,60.2971,-76.0810,157.1126,1,0
0000995305,0,-0.7237,-0.2946,-0.5991,0.1746,1821,495,-96,1947,431,-279,480,86,-258,63.4314,-75.9476,155.6291,1,0
0000995326,0,-0.7166,-0.3089,-0.5986,0.1809,1810,521,-102,2015,403,-411,390,101,-259,67.7576,-75.8508,153.0939,1,0
0000995347,0,-0.7113,-0.3190,-0.5986,0.1844,1810,521,-102,2031,463,-523,353,85,-240,71.0682,-75.7430,150.9786,1,0
0000995368,0,-0.7066,-0.3285,-0.5979,0.1881,1803,547,-107,2003,447,-531,361,52,-213,73.8637,-75.5734,149.3523,1,0
0000995389,0,-0.7024,-0.3379,-0.5963,0.1920,1793,569,-120,1863,259,-431,356,18,-198,76.1685,-75.3343,148.2265,1,0
0000995410,0,-0.6991,-0.3466,-0.5944,0.1947,1787,590,-135,1751,123,-323,251,-16,-193,78.1441,-75.0055,147.2756,1,0
0000995431,0,-0.6961,-0.3547,-0.5929,0.1954,1780,608,-144,1739,83,-255,131,-15,-162,80.1773,-74.5773,146.0506,1,0
0000995452,0,-0.6948,-0.3578,-0.5930,0.1940,1773,622,-145,1711,175,-227,-20,-7,-118,81.3567,-74.3212,145.0359,1,0
0000995473,0,-0.6944,-0.3580,-0.5944,0.1905,1771,629,-138,1691,287,-247,-149,2,-82,82.2135,-74.1505,143.8923,1,0
0000995494,0,-0.6945,-0.3559,-0.5970,0.1859,1767,635,-125,1715,495,-375,-223,22,-58,82.9078,-74.0647,142.6144,1,0
0000995515,0,-0.6948,-0.3528,-0.6000,0.1812,1767,635,-125,1779,563,-423,-228,33,-20,83.5131,-74.0592,141.3133,1,0
0000995536,0,-0.6955,-0.3483,-0.6033,0.1762,1766,637,-110,1831,515,-391,-219,20,9,83.8139,-74.1318,140.1735,1,0
0000995557,0,-0.6965,-0.3441,-0.6056,0.1722,1766,633,-98,1927,495,-355,-253,9,26,83.7530,-74.1970,139.5060,1,0
0000995578,0,-0.6981,-0.3388,-0.6081,0.1677,1768,629,-84,1971,555,-407,-293,-2,45,83.4601,-74.2800,138.9288,1,0
0000995599,0,-0.7001,-0.3330,-0.6102,0.1629,1769,621,-73,1947,543,-383,-293,-23,68,82.8688,-74.3650,138.5937,1,0
0000995620,0,-0.7027,-0.3269,-0.6118,0.1581,1773,611,-64,1903,623,-307,-323,-56,81,81.9337,-74.4210,138.5670,1,0
0000995641,0,-0.7065,-0.3184,-0.6136,0.1513,1777,602,-55,1931,663,-327,-341,-60,78,80.5256,-74.4547,138.6452,1,0
0000995662,0,-0.7095,-0.3118,-0.6150,0.1454,1779,592,-47,1987,619,-347,-335,-72,71,79.4356,-74.4465,138.6541,1,0
0000995683,0,-0.7128,-0.3053,-0.6159,0.1394,1779,592,-47,1951,575,-331,-340,-99,70,78.2152,-74.3861,138.7984,1,0
0000995704,0,-0.7166,-0.2985,-0.6162,0.1330,1783,583,-44,1871,599,-315,-359,-126,81,76.6946,-74.2696,139.1865,1,0
0000995725,0,-0.7207,-0.2913,-0.6162,0.1265,1785,569,-44,1779,659,-295,-361,-133,99,74.9851,-74.1342,139.7235,1,0
0000995746,0,-0.7259,-0.2819,-0.6160,0.1189,1793,557,-40,1735,731,-327,-350,-130,119,72.6558,-74.0197,140.5982,1,0
0000995767,0,-0.7300,-0.2745,-0.6155,0.1135,1795,541,-42,1667,735,-323,-313,-136,129,70.6642,-73.9376,141.5061,1,0
0000995788,0,-0.7340,-0.2674,-0.6148,0.1087,1802,527,-43,1667,779,-295,-299,-124,131,68.6804,-73.8707,142.4768,1,0
0000995809,0,-0.7375,-0.2605,-0.6143,0.1043,1807,512,-43,1723,803,-311,-277,-108,120,66.8282,-73.8222,143.3808,1,0
0000995830,0,-0.7407,-0.2545,-0.6136,0.1002,1811,500,-47,1795,787,-403,-221,-111,97,65.1812,-73.7469,144.1699,1,0
0000995851,0,-0.7442,-0.2489,-0.6123,0.0967,1811,500,-47,1863,735,-459,-142,-93,80,63.3843,-73.6206,145.2021,1,0
0000995872,0,-0.7463,-0.2460,-0.6112,0.0950,1813,490,-51,1871,711,-451,-91,-73,62,62.2840,-73.5311,145.9180,1,0
0000995893,0,-0.7476,-0.2439,-0.6105,0.0941,1814,483,-56,1859,731,-303,-64,-42,43,61.5099,-73.4818,146.4393,1,0
0000995914,0,-0.7483,-0.2425,-0.6104,0.0932,1817,481,-55,1847,799,-279,-44,-4,22,61.1597,-73.4778,146.5895,1,0
0000995935,0,-0.7480,-0.2425,-0.6105,0.0942,1815,477,-56,1719,707,-231,116,23,35,61.0693,-73.5607,146.7714,1,0
0000995956,0,-0.7474,-0.2447,-0.6096,0.0995,1818,474,-62,1743,683,-327,217,27,46,60.7567,-73.7237,147.7077,1,0
0000995977,0,-0.7463,-0.2481,-0.6085,0.1057,1818,474,-68,1843,611,-347,296,39,48,60.5674,-73.8962,148.7009,1,0
0000995998,0,-0.7453,-0.2520,-0.6068,0.1130,1819,468,-79,1955,423,-339,322,16,58,60.2005,-74.0438,150.0157,1,0
0000996019,0,-0.7445,-0.2560,-0.6047,0.1210,1819,468,-79,1923,295,-371,355,22,87,59.6011,-74.2074,151.6248,1,0
0000996040,0,-0.7434,-0.2598,-0.6024,0.1304,1822,462,-89,1783,239,-423,390,38,115,58.7325,-74.4451,153.6066,1,0
0000996061,0,-0.7414,-0.2648,-0.5997,0.1436,1825,452,-99,1723,167,-487,431,73,125,57.4659,-74.8465,156.4102,1,0
0000996082,0,-0.7391,-0.2693,-0.5977,0.1549,1829,441,-105,1707,107,-483,449,95,107,56.5954,-75.2265,158.6086,1,0
0000996103,0,-0.7362,-0.2742,-0.5961,0.1658,1831,434,-111,1783,-103,-459,447,103,80,56.0003,-75.6125,160.5504,1,0
0000996124,0,-0.7332,-0.2794,-0.5943,0.1764,1833,429,-116,1959,-407,-427,448,93,65,55.5263,-75.9562,162.3795,1,0
0000996145,0,-0.7299,-0.2849,-0.5924,0.1873,1833,425,-120,2027,-611,-391,460,111,75,54.9992,-76.3050,164.2999,1,0
0000996166,0,-0.7259,-0.2907,-0.5902,0.2006,1837,417,-124,2067,-663,-427,408,96,94,54.0611,-76.7722,166.8865,1,0
0000996187,0,-0.7234,-0.2939,-0.5885,0.2098,1837,417,-124,2131,-335,-551,316,87,90,52.9391,-77.0950,169.0656,1,0
0000996208,0,-0.7212,-0.2966,-0.5871,0.2173,1837,410,-125,2099,-163,-511,292,60,67,52.0656,-77.3468,170.8247,1,0
0000996229,0,-0.7192,-0.3000,-0.5852,0.2241,1840,405,-130,1891,-111,-467,303,34,36,51.4350,-77.4951,172.3434,1,0
0000996250,0,-0.7170,-0.3051,-0.5826,0.2312,1841,405,-139,1843,-187,-479,401,5,0,51.2047,-77.5468,173.6430,1,0
0000996271,0,-0.7136,-0.3133,-0.5784,0.2411,1840,405,-154,1811,-275,-487,427,5,-12,51.3455,-77.5602,175.1010,1,0
0000996292,0,-0.7105,-0.3203,-0.5748,0.2496,1841,408,-166,1695,-295,-399,464,12,-7,51.4221,-77.5797,176.4023,1,0
0000996313,0,-0.7069,-0.3275,-0.5711,0.2586,1838,410,-181,1687,-271,-399,466,28,-18,51.5400,-77.6294,177.7303,1,0
0000996334,0,-0.7027,-0.3349,-0.5680,0.2672,1839,415,-190,1739,-191,-451,470,52,-41,52.0380,-77.7637,178.6679,1,0
0000996355,0,-0.6980,-0.3426,-0.5651,0.2758,1839,415,-190,1831,-135,-459,475,49,-70,52.7917,-77.9182,179.3801,1,0
0000996376,0,-0.6918,-0.3533,-0.5612,0.2858,1835,422,-200,1919,-119,-479,495,31,-101,54.3671,-78.0702,179.6805,1,0
0000996397,0,-0.6864,-0.3629,-0.5576,0.2937,1832,430,-214,1943,-227,-435,515,17,-124,56.0809,-78.1286,179.5667,1,0
0000996418,0,-0.6811,-0.3725,-0.5539,0.3009,1829,443,-231,1923,-243,-423,475,7,-136,58.0013,-78.1453,179.2028,1,0
0000996439,0,-0.6759,-0.3816,-0.5507,0.3070,1826,455,-248,1895,-291,-411,436,15,-144,60.1077,-78.1747,178.5089,1,0
0000996460,0,-0.6707,-0.3902,-0.5479,0.3125,1819,471,-257,1903,-351,-395,393,16,-150,62.2583,-78.2039,177.6810,1,0
0000996481,0,-0.6651,-0.3993,-0.5455,0.3172,1814,484,-268,1927,-327,-407,276,11,-146,65.0563,-78.2267,176.1801,1,0
0000996502,0,-0.6617,-0.4049,-0.5442,0.3195,1812,497,-274,1927,-319,-447,199,0,-128,67.0007,-78.2039,174.9828,1,0
0000996523,0,-0.6593,-0.4094,-0.5431,0.3206,1812,497,-274,1919,-327,-435,132,-17,-112,68.6419,-78.1316,173.8814,1,0
0000996544,0,-0.6579,-0.4127,-0.5426,0.3202,1806,508,-281,1855,-283,-435,54,-35,-103,70.1518,-78.0027,172.6516,1,0
0000996565,0,-0.6571,-0.4150,-0.5424,0.3191,1803,514,-284,1831,-323,-391,5,-15,-87,71.3696,-77.8643,171.5730,1,0
0000996586,0,-0.6564,-0.4163,-0.5435,0.3169,1799,525,-285,1823,-367,-395,-67,-4,-70,72.7632,-77.7866,170.0895,1,0
0000996607,0,-0.6568,-0.4159,-0.5448,0.3144,1798,531,-281,1855,-447,-295,-134,-8,-52,73.4719,-77.7297,169.1015,1,0
0000996628,0,-0.6582,-0.4139,-0.5470,0.3104,1796,537,-271,1875,-391,-291,-236,-8,-40,73.9362,-77.6665,168.0731,1,0
0000996649,0,-0.6601,-0.4103,-0.5504,0.3048,1796,542,-259,1971,-315,-247,-315,3,-33,74.4403,-77.6472,166.7024,1,0
0000996670,0,-0.6628,-0.4056,-0.5543,0.2983,1795,547,-243,1923,-319,-211,-395,-11,-25,74.7371,-77.6138,165.3484,1,0
0000996691,0,-0.6669,-0.3984,-0.5598,0.2884,1795,547,-243,1887,-319,-179,-446,-20,-11,74.9859,-77.5355,163.5034,1,0
0000996712,0,-0.6710,-0.3915,-0.5641,0.2799,1794,549,-226,1955,-211,-195,-493,-34,6,74.7717,-77.4517,162.2888,1,0
0000996733,0,-0.6755,-0.3837,-0.5686,0.2705,1796,551,-208,2039,-163,-235,-530,-43,24,74.3585,-77.3516,161.1134,1,0
0000996754,0,-0.6806,-0.3752,-0.5727,0.2609,1795,544,-192,2075,-203,-247,-545,-63,47,73.5517,-77.2356,160.2716,1,0
0000996775,0,-0.6864,-0.3661,-0.5761,0.2509,1799,538,-176,1971,-179,-195,-577,-99,71,72.2859,-77.0537,159.8078,1,0
0000996796,0,-0.6946,-0.3535,-0.5798,0.2376,1801,528,-165,1879,-175,-167,-604,-127,103,70.1598,-76.7492,159.6088,1,0
0000996817,0,-0.7015,-0.3426,-0.5823,0.2269,1807,517,-154,1923,-71,-159,-630,-127,123,68.0657,-76.5102,159.7745,1,0
0000996838,0,-0.7081,-0.3306,-0.5854,0.2158,1811,499,-131,2251,279,-467,-665,-67,136,66.0115,-76.3587,159.7935,1,0
0000996859,0,-0.7135,-0.3176,-0.5900,0.2050,1811,499,-131,1943,267,-471,-673,-41,134,64.1884,-76.4285,159.5099,1,0
0000996880,0,-0.7195,-0.3052,-0.5934,0.1924,1815,486,-116,1851,491,-351,-746,-83,67,62.5693,-76.2589,158.9389,1,0
0000996901,0,-0.7257,-0.2900,-0.5987,0.1757,1817,474,-97,1723,407,-331,-656,-53,51,61.3612,-76.1216,157.3925,1,0
0000996922,0,-0.7294,-0.2802,-0.6019,0.1650,1817,464,-82,1803,347,-343,-530,-41,49,60.5810,-76.0391,156.3994,1,0
0000996943,0,-0.7322,-0.2718,-0.6046,0.1562,1820,457,-66,1859,351,-363,-441,-28,49,59.9018,-76.0156,155.6026,1,0
0000996964,0,-0.7347,-0.2645,-0.6066,0.1490,1820,449,-56,1879,371,-331,-380,-36,47,59.1647,-75.9861,155.1070,1,0
0000996985,0,-0.7369,-0.2580,-0.6084,0.1424,1823,441,-49,1943,383,-279,-316,-27,48,58.5191,-75.9582,154.6277,1,0
0000997006,0,-0.7392,-0.2513,-0.6097,0.1367,1824,434,-45,1859,295,-319,-226,-27,64,57.5572,-75.9586,154.5400,1,0
0000997027,0,-0.7409,-0.2467,-0.6102,0.1337,1824,434,-45,1779,327,-427,-190,-36,78,56.5893,-75.9678,154.8621,1,0
0000997048,0,-0.7427,-0.2420,-0.6105,0.1309,1826,424,-43,1695,359,-379,-204,-34,84,55.4699,-75.9723,155.3473,1,0
0000997069,0,-0.7444,-0.2368,-0.6111,0.1278,1828,412,-38,1623,371,-255,-226,-18,86,54.3412,-76.0094,155.7722,1,0
0000997090,0,-0.7456,-0.2318,-0.6122,0.1248,1831,403,-32,1703,379,-179,-180,12,68,53.4772,-76.1114,155.9498,1,0
0000997111,0,-0.7464,-0.2275,-0.6133,0.1225,1832,394,-26,1963,331,-307,-99,0,50,52.6922,-76.2312,156.1799,1,0
0000997132,0,-0.7471,-0.2256,-0.6133,0.1220,1833,388,-27,2043,219,-455,-42,-21,53,52.0629,-76.2549,156.6033,1,0
0000997153,0,-0.7479,-0.2235,-0.6130,0.1219,1835,380,-25,2011,159,-551,-69,-10,67,51.2541,-76.2833,157.2271,1,0
0000997174,0,-0.7486,-0.2204,-0.6134,0.1212,1835,372,-22,1935,355,-515,-108,8,79,50.3535,-76.3745,157.8031,1,0
0000997195,0,-0.7493,-0.2171,-0.6139,0.1207,1835,372,-22,1883,483,-543,-67,7,85,49.4013,-76.5027,158.4355,1,0
0000997216,0,-0.7498,-0.2144,-0.6140,0.1214,1838,361,-20,1859,547,-503,-7,8,67,48.2494,-76.6302,159.4135,1,0
0000997237,0,-0.7498,-0.2138,-0.6140,0.1227,1840,353,-20,1823,631,-467,43,18,34,47.7477,-76.7213,159.9717,1,0
0000997258,0,-0.7494,-0.2149,-0.6138,0.1244,1840,353,-20,1723,719,-391,109,12,-3,47.7130,-76.7652,160.2468,1,0
0000997279,0,-0.7484,-0.2180,-0.6133,0.1271,1840,358,-24,1687,735,-343,224,6,-59,48.1538,-76.7723,160.2922,1,0
0000997300,0,-0.7471,-0.2240,-0.6120,0.1311,1837,369,-33,1699,675,-343,329,-8,-104,49.1439,-76.6867,160.1404,1,0
0000997321,0,-0.7446,-0.2349,-0.6095,0.1376,1835,390,-46,1891,579,-379,420,-10,-162,51.1318,-76.4779,159.6308,1,0
0000997342,0,-0.7418,-0.2463,-0.6071,0.1432,1828,415,-62,1999,503,-403,464,-13,-222,53.5334,-76.2273,158.6786,1,0
0000997363,0,-0.7386,-0.2587,-0.6046,0.1481,1828,415,-62,2035,375,-439,455,-20,-264,56.3863,-75.8858,157.3070,1,0
0000997384,0,-0.7353,-0.2713,-0.6021,0.1522,1821,446,-78,2027,319,-431,433,-30,-266,59.3711,-75.4895,155.7718,1,0
0000997405,0,-0.7321,-0.2833,-0.5994,0.1564,1812,474,-98,2003,295,-395,436,-32,-240,61.9980,-75.0773,154.5498,1,0
0000997426,0,-0.7284,-0.2974,-0.5955,0.1623,1806,500,-118,1879,315,-431,436,-33,-199,64.6227,-74.6004,153.6766,1,0
0000997447,0,-0.7253,-0.3081,-0.5922,0.1680,1800,519,-137,1883,323,-447,460,-18,-171,66.3409,-74.2887,153.3903,1,0
0000997468,0,-0.7221,-0.3186,-0.5889,0.1741,1793,536,-158,1803,407,-511,451,-16,-162,67.9331,-74.0230,153.2575,1,0
0000997489,0,-0.7189,-0.3287,-0.5855,0.1798,1789,553,-178,1795,483,-559,445,-18,-164,69.4109,-73.7480,153.1837,1,0
0000997510,0,-0.7156,-0.3388,-0.5820,0.1854,1781,569,-198,1835,451,-539,429,-20,-174,70.9562,-73.4604,153.0408,1,0
0000997531,0,-0.7114,-0.3511,-0.5779,0.1916,1776,587,-216,1763,327,-523,396,-16,-170,72.8842,-73.0897,152.7725,1,0
0000997552,0,-0.7081,-0.3597,-0.5751,0.1962,1776,587,-216,1695,247,-507,362,1,-143,74.2845,-72.8567,152.5669,1,0
0000997573,0,-0.7049,-0.3672,-0.5726,0.2009,1769,598,-232,1687,215,-491,323,19,-112,75.4825,-72.7142,152.4611,1,0
0000997594,0,-0.7021,-0.3730,-0.5708,0.2051,1768,607,-241,1775,211,-503,236,27,-64,76.4050,-72.6600,152.4462,1,0
0000997615,0,-0.7001,-0.3770,-0.5694,0.2084,1764,609,-248,1783,171,-515,165,18,-31,76.9810,-72.6504,152.5317,1,0
0000997636,0,-0.6987,-0.3796,-0.5684,0.2113,1766,612,-251,1779,127,-455,81,16,0,77.2674,-72.6811,152.7365,1,0
0000997657,0,-0.6984,-0.3794,-0.5686,0.2121,1768,609,-246,1863,335,-511,-20,34,28,77.2092,-72.7756,152.8474,1,0
0000997678,0,-0.6985,-0.3775,-0.5697,0.2123,1770,602,-240,1991,463,-495,-65,43,60,76.9984,-72.9589,152.8872,1,0
0000997699,0,-0.6994,-0.3746,-0.5707,0.2118,1773,597,-233,1915,539,-447,-128,1,78,76.4285,-73.1267,153.1371,1,0
0000997720,0,-0.7011,-0.3710,-0.5716,0.2101,1773,597,-233,1875,455,-383,-159,-16,75,75.7180,-73.2065,153.3627,1,0
0000997741,0,-0.7040,-0.3656,-0.5728,0.2064,1775,589,-229,1903,455,-375,-232,-43,76,74.6414,-73.2209,153.6264,1,0
0000997762,0,-0.7070,-0.3603,-0.5740,0.2021,1779,583,-221,1903,499,-411,-280,-52,91,73.6476,-73.1987,153.7597,1,0
0000997783,0,-0.7104,-0.3541,-0.5753,0.1975,1782,576,-214,1855,551,-415,-305,-61,103,72.4370,-73.1763,154.0100,1,0
0000997804,0,-0.7141,-0.3478,-0.5762,0.1923,1787,564,-212,1803,579,-387,-317,-89,103,71.1392,-73.0967,154.2913,1,0
0000997825,0,-0.7180,-0.3414,-0.5770,0.1868,1790,555,-207,1783,655,-415,-322,-89,102,69.8258,-72.9844,154.5545,1,0
0000997846,0,-0.7229,-0.3335,-0.5777,0.1802,1793,547,-204,1743,699,-431,-304,-98,103,68.0908,-72.8222,155.0126,1,0
0000997867,0,-0.7266,-0.3276,-0.5779,0.1753,1798,538,-202,1699,707,-439,-267,-92,101,66.7651,-72.6854,155.4045,1,0
0000997888,0,-0.7298,-0.3225,-0.5780,0.1713,1798,538,-202,1819,659,-427,-225,-69,85,65.5761,-72.5789,155.7951,1,0
0000997909,0,-0.7319,-0.3185,-0.5784,0.1683,1799,529,-201,1843,587,-447,-146,-32,61,64.7533,-72.5347,156.0046,1,0
0000997930,0,-0.7334,-0.3156,-0.5786,0.1664,1803,524,-199,1839,427,-467,-96,-37,56,64.1099,-72.5087,156.2310,1,0
0000997951,0,-0.7347,-0.3134,-0.5782,0.1663,1804,519,-199,1911,363,-435,-17,-8,63,63.3165,-72.5299,156.8241,1,0
0000997972,0,-0.7353,-0.3122,-0.5778,0.1675,1807,513,-202,2091,379,-539,36,-5,80,62.6399,-72.5990,157.4988,1,0
0000997993,0,-0.7358,-0.3115,-0.5766,0.1706,1810,502,-207,1863,143,-587,102,-2,113,61.6859,-72.7088,158.6614,1,0
0000998014,0,-0.7366,-0.3104,-0.5749,0.1749,1817,486,-211,1743,51,-471,106,0,180,60.2783,-72.8457,160.3310,1,0
0000998035,0,-0.7376,-0.3080,-0.5734,0.1801,1824,463,-210,1635,55,-487,106,38,222,58.3438,-73.0726,162.4963,1,0
0000998056,0,-0.7379,-0.3044,-0.5723,0.1879,1824,463,-210,1707,-71,-555,128,83,221,55.7214,-73.5416,165.4675,1,0
0000998077,0,-0.7377,-0.3014,-0.5721,0.1940,1828,441,-206,1755,-179,-519,83,87,206,53.6699,-73.9479,167.7667,1,0
0000998098,0,-0.7378,-0.2975,-0.5725,0.1984,1837,421,-196,1811,-175,-503,-5,98,189,51.6835,-74.3341,169.7759,1,0
0000998119,0,-0.7379,-0.2929,-0.5738,0.2014,1841,402,-187,1855,-227,-511,-26,98,183,49.7853,-74.7336,171.5159,1,0
0000998140,0,-0.7379,-0.2886,-0.5746,0.2048,1847,384,-176,2011,-455,-495,-1,93,183,47.7554,-75.0874,173.4479,1,0
0000998161,0,-0.7377,-0.2835,-0.5756,0.2098,1850,364,-167,2099,-571,-539,20,107,197,45.0436,-75.5356,176.1318,1,0
0000998182,0,-0.7376,-0.2789,-0.5764,0.2142,1856,341,-156,2055,-487,-583,0,109,215,42.4336,-75.8840,178.7124,1,0
0000998203,0,-0.7378,-0.2740,-0.5771,0.2181,1856,341,-156,1951,-307,-527,-14,99,206,39.6814,-76.1879,-178.6434,1,0
0000998224,0,-0.7378,-0.2697,-0.5778,0.2215,1860,321,-145,1875,-199,-531,8,71,167,37.2235,-76.4211,-176.2791,1,0
0000998245,0,-0.7379,-0.2666,-0.5778,0.2249,1863,303,-140,1775,-167,-527,46,51,145,35.1054,-76.5619,-174.1355,1,0
0000998266,0,-0.7379,-0.2652,-0.5767,0.2294,1867,291,-139,1763,-207,-511,109,5,95,33.1559,-76.5916,-171.9167,1,0
0000998287,0,-0.7376,-0.2663,-0.5749,0.2334,1867,282,-145,1779,-267,-515,184,-20,55,32.2519,-76.5166,-170.5689,1,0
0000998308,0,-0.7370,-0.2693,-0.5723,0.2382,1869,283,-153,1783,-307,-503,246,-39,19,31.8873,-76.3850,-169.5169,1,0
0000998329,0,-0.7359,-0.2735,-0.5697,0.2430,1867,282,-164,1807,-231,-559,275,-30,-15,31.9647,-76.2716,-168.7997,1,0
0000998350,0,-0.7344,-0.2785,-0.5670,0.2482,1869,286,-176,1851,-211,-587,313,-29,-31,32.3155,-76.1880,-168.2449,1,0
0000998371,0,-0.7316,-0.2866,-0.5633,0.2555,1866,294,-189,1927,-223,-531,371,-39,-59,33.1714,-76.0931,-167.7345,1,0
0000998392,0,-0.7292,-0.2942,-0.5598,0.2615,1866,294,-189,1923,-267,-479,394,-57,-89,34.2540,-75.9860,-167.6079,1,0
0000998413,0,-0.7265,-0.3026,-0.5561,0.2671,1865,304,-206,1839,-367,-387,391,-59,-116,35.7073,-75.8666,-167.8058,1,0
0000998434,0,-0.7235,-0.3110,-0.5530,0.2720,1862,317,-220,1775,-455,-387,353,-39,-139,37.4030,-75.7927,-168.3090,1,0
0000998455,0,-0.7204,-0.3189,-0.5505,0.2763,1858,327,-234,1759,-471,-391,326,-26,-147,39.1759,-75.7712,-168.9796,1,0
0000998476,0,-0.7165,-0.3280,-0.5482,0.2803,1856,343,-244,1807,-367,-431,266,-21,-149,41.5026,-75.7849,-170.1302,1,0
0000998497,0,-0.7136,-0.3347,-0.5465,0.2829,1850,359,-252,1855,-319,-475,253,-17,-154,43.3533,-75.7927,-171.1290,1,0
0000998518,0,-0.7105,-0.3416,-0.5452,0.2851,1847,376,-261,1883,-195,-547,243,-16,-173,45.3941,-75.8078,-172.3512,1,0
0000998539,0,-0.7072,-0.3491,-0.5439,0.2868,1847,376,-261,1875,-79,-583,272,-36,-218,47.8252,-75.8027,-173.9346,1,0
0000998560,0,-0.7034,-0.3580,-0.5421,0.2884,1840,398,-274,1911,-75,-579,304,-50,-249,50.7567,-75.7251,-175.8984,1,0
0000998581,0,-0.6979,-0.3708,-0.5394,0.2906,1834,422,-288,1923,-207,-575,346,-57,-282,54.9729,-75.5722,-178.7193,1,0
0000998602,0,-0.6933,-0.3817,-0.5368,0.2924,1824,447,-308,1839,-439,-551,354,-71,-287,58.4418,-75.3651,179.0087,1,0
0000998623,0,-0.6890,-0.3921,-0.5339,0.2940,1815,474,-328,1779,-547,-527,304,-81,-267,61.6114,-75.0883,176.9710,1,0
0000998644,0,-0.6857,-0.4008,-0.5317,0.2941,1806,498,-345,1731,-551,-455,184,-87,-231,64.4611,-74.7755,174.9735,1,0
0000998665,0,-0.6834,-0.4077,-0.5300,0.2930,1796,517,-357,1667,-539,-423,85,-92,-207,66.7787,-74.4303,173.2253,1,0
0000998686,0,-0.6819,-0.4138,-0.5291,0.2894,1791,534,-366,1651,-595,-395,15,-87,-180,69.3046,-73.9794,170.9811,1,0
0000998707,0,-0.6815,-0.4168,-0.5291,0.2861,1791,534,-366,1835,-671,-279,-72,-61,-147,70.7690,-73.6828,169.5172,1,0
0000998728,0,-0.6822,-0.4171,-0.5306,0.2812,1783,548,-368,1939,-519,-311,-223,-59,-102,71.8002,-73.4378,168.0665,1,0
0000998749,0,-0.6841,-0.4153,-0.5329,0.2748,1780,561,-361,2063,-311,-311,-281,-51,-56,72.4429,-73.2122,166.6633,1,0
0000998770,0,-0.6864,-0.4124,-0.5355,0.2683,1778,569,-353,2007,-343,-315,-339,-50,-46,72.7872,-73.0294,165.4538,1,0
0000998791,0,-0.6901,-0.4066,-0.5401,0.2581,1777,577,-339,2159,-311,-339,-440,-35,-23,73.0947,-72.8315,163.6723,1,0
0000998812,0,-0.6940,-0.3997,-0.5446,0.2490,1777,579,-321,2467,11,-439,-528,-25,23,72.8889,-72.7406,162.3957,1,0
0000998833,0,-0.6981,-0.3903,-0.5505,0.2393,1779,578,-295,2215,115,-543,-585,23,68,72.4015,-72.8319,161.1176,1,0
0000998854,0,-0.7029,-0.3803,-0.5559,0.2287,1780,578,-268,1783,427,-391,-661,-39,34,71.7092,-72.8239,159.9275,1,0
0000998875,0,-0.7073,-0.3700,-0.5623,0.2159,1780,581,-242,1451,491,-303,-671,0,-4,71.5292,-72.7842,158.0164,1,0
0000998896,0,-0.7118,-0.3580,-0.5700,0.2006,1780,581,-242,1407,323,-267,-620,-3,0,71.5487,-72.7648,155.5449,1,0
0000998917,0,-0.7147,-0.3485,-0.5761,0.1892,1781,582,-213,1699,363,-311,-605,24,14,71.5877,-72.8195,153.6411,1,0
0000998938,0,-0.7175,-0.3384,-0.5822,0.1781,1779,579,-184,1831,407,-283,-615,27,36,71.4992,-72.9325,151.8432,1,0
0000998959,0,-0.7202,-0.3279,-0.5880,0.1676,1782,573,-154,1983,459,-207,-602,53,58,71.2520,-73.1008,150.2379,1,0
0000998980,0,-0.7223,-0.3168,-0.5943,0.1575,1781,566,-119,2091,539,-299,-608,76,75,71.0518,-73.3796,148.5720,1,0
0000999001,0,-0.7248,-0.3023,-0.6017,0.1455,1786,554,-89,2135,591,-323,-595,51,97,70.5180,-73.7853,146.7897,1,0
0000999022,0,-0.7274,-0.2906,-0.6066,0.1358,1789,538,-64,1991,663,-311,-596,13,114,69.7437,-74.0374,145.7113,1,0
0000999043,0,-0.7302,-0.2787,-0.6109,0.1263,1793,520,-41,1783,703,-299,-582,8,123,68.7394,-74.2650,144.8629,1,0
0000999064,0,-0.7328,-0.2671,-0.6147,0.1176,1793,520,-41,1687,727,-243,-534,10,129,67.6195,-74.5109,144.2518,1,0
0000999085,0,-0.7350,-0.2560,-0.6183,0.1094,1797,501,-19,1719,839,-227,-511,20,121,66.6012,-74.7717,143.6255,1,0
0000999106,0,-0.7371,-0.2438,-0.6222,0.1004,1798,486,-1,1787,795,-183,-428,11,99,65.4781,-75.0692,142.9378,1,0
0000999127,0,-0.7384,-0.2355,-0.6248,0.0942,1802,471,16,1935,675,-179,-371,20,82,64.8067,-75.2677,142.3869,1,0
0000999148,0,-0.7394,-0.2282,-0.6271,0.0888,1801,459,28,1887,599,-255,-329,8,82,64.2078,-75.4585,141.9073,1,0
0000999169,0,-0.7407,-0.2209,-0.6289,0.0837,1807,443,39,1911,539,-331,-353,-6,96,63.3541,-75.6214,141.7252,1,0
0000999190,0,-0.7423,-0.2127,-0.6306,0.0780,1807,427,48,1967,507,-295,-385,-18,108,62.3025,-75.7877,141.6122,1,0
0000999211,0,-0.7448,-0.2016,-0.6321,0.0707,1812,409,57,1935,563,-351,-385,-46,130,60.4562,-75.9656,141.9113,1,0
0000999232,0,-0.7472,-0.1929,-0.6326,0.0655,1812,409,57,1919,611,-387,-343,-66,138,58.6705,-76.0808,142.5426,1,0
0000999253,0,-0.7498,-0.1849,-0.6324,0.0608,1817,391,60,1859,535,-331,-318,-88,133,56.6827,-76.1277,143.4739,1,0
0000999274,0,-0.7524,-0.1774,-0.6319,0.0565,1821,372,57,1795,531,-331,-275,-91,120,54.6892,-76.1295,144.4901,1,0
0000999295,0,-0.7548,-0.1710,-0.6311,0.0529,1825,355,56,1719,559,-367,-230,-84,109,52.8630,-76.1100,145.4860,1,0
0000999316,0,-0.7573,-0.1647,-0.6300,0.0495,1828,343,51,1687,499,-319,-169,-79,83,50.9051,-76.0527,146.6510,1,0
0000999337,0,-0.7590,-0.1610,-0.6291,0.0476,1831,336,49,1751,431,-295,-118,-60,68,49.6669,-75.9956,147.4300,1,0
0000999358,0,-0.7603,-0.1584,-0.6282,0.0467,1832,327,44,1875,487,-395,-67,-59,58,48.6228,-75.9461,148.1772,1,0
0000999379,0,-0.7616,-0.1567,-0.6271,0.0465,1832,327,44,1999,619,-435,-13,-65,49,47.6424,-75.8719,149.0043,1,0
0000999400,0,-0.7630,-0.1561,-0.6254,0.0469,1835,324,37,2127,803,-439,34,-87,28,46.7523,-75.7293,149.8897,1,0
0000999421,0,-0.7650,-0.1584,-0.6223,0.0489,1835,322,24,2035,703,-511,152,-106,-20,46.0048,-75.3894,150.9956,1,0
0000999442,0,-0.7666,-0.1632,-0.6188,0.0526,1836,328,5,1835,527,-479,279,-135,-39,45.6667,-75.0007,152.0343,1,0
0000999463,0,-0.7682,-0.1693,-0.6148,0.0573,1838,336,-14,1651,515,-511,315,-131,-51,45.4206,-74.5618,153.1914,1,0
0000999484,0,-0.7694,-0.1767,-0.6105,0.0632,1838,348,-41,1687,543,-467,405,-129,-71,45.3958,-74.1270,154.3202,1,0
0000999505,0,-0.7704,-0.1853,-0.6061,0.0697,1838,359,-66,1807,543,-459,426,-124,-90,45.6168,-73.6682,155.3694,1,0
0000999526,0,-0.7709,-0.1974,-0.6005,0.0784,1836,374,-91,1855,459,-539,466,-108,-117,46.2969,-73.0940,156.4486,1,0
0000999547,0,-0.7708,-0.2076,-0.5962,0.0856,1836,374,-91,1843,467,-543,477,-90,-118,47.0506,-72.6822,157.1604,1,0
0000999568,0,-0.7702,-0.2181,-0.5919,0.0936,1835,388,-116,1687,535,-467,516,-78,-116,47.8166,-72.3071,157.9590,1,0
0000999589,0,-0.7691,-0.2290,-0.5879,0.1021,1831,403,-138,1707,659,-443,537,-37,-124,48.7233,-72.0055,158.6944,1,0
0000999610,0,-0.7671,-0.2402,-0.5844,0.1111,1830,419,-160,1691,623,-491,567,-13,-131,49.8275,-71.7911,159.3148,1,0
0000999631,0,-0.7635,-0.2552,-0.5803,0.1233,1826,431,-177,1639,559,-559,593,18,-147,51.4594,-71.6311,160.0028,1,0
0000999652,0,-0.7599,-0.2675,-0.5773,0.1331,1821,449,-194,1655,523,-535,598,38,-170,53.0343,-71.5509,160.3210,1,0
0000999673,0,-0.7556,-0.2802,-0.5747,0.1423,1817,467,-210,1703,479,-459,578,47,-196,54.9076,-71.4878,160.3306,1,0
0000999694,0,-0.7510,-0.2925,-0.5724,0.1506,1810,489,-222,1667,511,-463,519,68,-217,56.9726,-71.4375,160.0501,1,0
0000999715,0,-0.7461,-0.3042,-0.5709,0.1577,1803,510,-231,1771,571,-459,482,77,-224,59.2232,-71.4097,159.4389,1,0
0000999736,0,-0.7395,-0.3182,-0.5694,0.1661,1803,510,-231,1847,583,-531,460,105,-217,62.0881,-71.4307,158.5204,1,0
0000999757,0,-0.7339,-0.3290,-0.5685,0.1730,1794,529,-239,1983,507,-515,486,102,-209,64.3987,-71.4930,157.7541,1,0
0000999778,0,-0.7283,-0.3399,-0.5671,0.1803,1789,549,-248,2179,383,-527,482,107,-194,66.5884,-71.5404,157.1708,1,0
0000999799,0,-0.7225,-0.3494,-0.5662,0.1880,1782,563,-254,2023,199,-631,486,128,-126,68.5434,-71.7135,156.7246,1,0
0000999820,0,-0.7173,-0.3585,-0.5639,0.1972,1780,571,-267,1807,7,-423,526,83,-82,69.8784,-71.8847,157.0181,1,0
0000999841,0,-0.7124,-0.3679,-0.5604,0.2077,1779,574,-277,1615,59,-395,385,72,-49,70.8467,-72.0378,157.8159,1,0
0000999862,0,-0.7086,-0.3732,-0.5592,0.2144,1777,577,-279,1599,39,-431,315,109,-44,71.6207,-72.2612,158.1120,1,0
0000999883,0,-0.7050,-0.3774,-0.5586,0.2205,1778,577,-277,1635,-123,-411,259,113,-22,72.3077,-72.5455,158.3373,1,0
0000999904,0,-0.7020,-0.3797,-0.5587,0.2256,1778,577,-277,1783,-287,-319,144,130,31,72.7261,-72.8847,158.5694,1,0
0000999925,0,-0.6999,-0.3794,-0.5599,0.2298,1780,572,-268,1887,-307,-291,7,155,75,72.7053,-73.3387,158.9099,1,0
0000999946,0,-0.6984,-0.3749,-0.5636,0.2323,1785,566,-250,1939,-311,-279,-116,165,110,72.3131,-74.0411,159.0725,1,0
0000999967,0,-0.6985,-0.3687,-0.5675,0.2327,1790,552,-226,2059,-331,-251,-229,158,144,71.4915,-74.6483,159.3265,1,0
0000999988,0,-0.6998,-0.3601,-0.5720,0.2312,1797,537,-198,2171,-339,-263,-351,145,182,70.1832,-75.2561,159.6830,1,0
0001000009,0,-0.7022,-0.3489,-0.5772,0.2280,1805,514,-165,2263,-315,-287,-477,126,239,68.3322,-75.8734,160.2081,1,0
0001000030,0,-0.7059,-0.3355,-0.5824,0.2234,1813,488,-136,2231,-143,-323,-580,91,275,65.6733,-76.4572,161.2324,1,0
0001000051,0,-0.7119,-0.3164,-0.5888,0.2156,1823,454,-105,2155,-123,-327,-617,67,294,61.5494,-77.0792,162.9419,1,0
0001000072,0,-0.7170,-0.3007,-0.5930,0.2092,1823,454,-105,1987,-155,-315,-607,43,307,57.6913,-77.4874,164.8499,1,0
0001000093,0,-0.7223,-0.2851,-0.5965,0.2031,1832,419,-82,1915,-159,-319,-586,24,322,53.4063,-77.8143,167.2228,1,0
0001000114,0,-0.7275,-0.2697,-0.5992,0.1976,1841,381,-62,1931,-135,-367,-536,5,326,48.7354,-78.0530,170.0779,1,0
0001000135,0,-0.7325,-0.2551,-0.6011,0.1927,1847,341,-49,1875,-127,-367,-513,-2,319,43.9626,-78.1960,173.1597,1,0
0001000156,0,-0.7385,-0.2380,-0.6027,0.1866,1856,308,-38,1815,-83,-343,-464,-34,289,38.3097,-78.2133,176.8240,1,0
0001000177,0,-0.7429,-0.2259,-0.6032,0.1822,1860,277,-34,1779,-19,-355,-416,-45,257,34.2613,-78.1124,179.4701,1,0
0001000198,0,-0.7468,-0.2155,-0.6034,0.1782,1865,250,-30,1815,-27,-371,-347,-37,218,30.8310,-77.9751,-178.3209,1,0
0001000219,0,-0.7498,-0.2071,-0.6035,0.1750,1867,233,-29,1903,-139,-415,-257,-40,155,28.1238,-77.8412,-176.5896,1,0
0001000240,0,-0.7524,-0.2007,-0.6032,0.1722,1867,233,-29,1959,-183,-495,-223,-49,120,26.1933,-77.6700,-175.4280,1,0
0001000261,0,-0.7554,-0.1942,-0.6027,0.1683,1869,218,-31,1999,-171,-547,-216,-61,81,24.5876,-77.4245,-174.6956,1,0
0001000282,0,-0.7578,-0.1901,-0.6020,0.1649,1870,209,-34,1959,-139,-559,-192,-76,48,23.8187,-77.1864,-174.5608,1,0
0001000303,0,-0.7602,-0.1869,-0.6010,0.1611,1872,206,-42,1911,-91,-575,-186,-89,14,23.5481,-76.9087,-174.8679,1,0
0001000324,0,-0.7623,-0.1847,-0.6001,0.1571,1873,206,-47,1847,-59,-579,-144,-92,-28,23.7370,-76.6325,-175.5758,1,0
0001000345,0,-0.7642,-0.1839,-0.5989,0.1534,1872,210,-57,1799,-135,-583,-100,-91,-52,24.3397,-76.3504,-176.5390,1,0
0001000366,0,-0.7659,-0.1849,-0.5974,0.1498,1872,219,-64,1795,-155,-619,-42,-87,-82,25.5416,-76.0219,-177.9550,1,0
0001000387,0,-0.7667,-0.1868,-0.5962,0.1476,1870,230,-72,1811,-155,-607,-2,-67,-102,26.7303,-75.7877,-179.1543,1,0
0001000408,0,-0.7672,-0.1894,-0.5953,0.1457,1870,230,-72,1795,-147,-647,10,-64,-114,28.0979,-75.5920,179.5349,1,0
0001000429,0,-0.7676,-0.1925,-0.5941,0.1441,1870,241,-77,1787,-175,-623,44,-67,-117,29.4684,-75.3693,178.3053,1,0
0001000450,0,-0.7677,-0.1961,-0.5930,0.1432,1867,256,-87,1703,-223,-671,68,-51,-120,30.8364,-75.1618,177.1685,1,0
0001000471,0,-0.7673,-0.2007,-0.5921,0.1428,1865,265,-93,1683,-259,-711,92,-22,-109,32.4909,-75.0118,175.8747,1,0
0001000492,0,-0.7667,-0.2044,-0.5916,0.1431,1864,278,-95,1691,-183,-671,93,-10,-101,33.6357,-74.9225,175.0668,1,0
0001000513,0,-0.7660,-0.2080,-0.5911,0.1435,1862,287,-101,1683,-39,-675,112,-17,-99,34.7776,-74.8547,174.2621,1,0
0001000534,0,-0.7654,-0.2128,-0.5898,0.1450,1860,301,-111,1711,-51,-627,197,-45,-114,35.9307,-74.7020,173.6483,1,0
0001000555,0,-0.7647,-0.2198,-0.5874,0.1477,1857,319,-129,1819,-207,-579,294,-77,-146,37.3392,-74.4434,173.0779,1,0
0001000576,0,-0.7634,-0.2310,-0.5836,0.1525,1857,319,-129,1839,-407,-499,346,-79,-172,39.5004,-74.0538,172.2814,1,0
0001000597,0,-0.7622,-0.2399,-0.5806,0.1564,1854,338,-144,1823,-447,-403,333,-74,-160,41.1416,-73.7477,171.7411,1,0
0001000618,0,-0.7608,-0.2483,-0.5776,0.1606,1850,353,-161,1931,-415,-351,331,-51,-140,42.5552,-73.4862,171.4224,1,0
0001000639,0,-0.7589,-0.2557,-0.5758,0.1646,1847,367,-171,2075,-343,-407,277,13,-128,43.9259,-73.3682,171.0374,1,0
0001000660,0,-0.7563,-0.2621,-0.5753,0.1683,1846,379,-169,2215,-19,-623,233,63,-125,45.3051,-73.4186,170.5193,1,0
0001000681,0,-0.7528,-0.2679,-0.5764,0.1709,1840,391,-172,1903,351,-591,166,47,-123,47.0544,-73.6337,169.4805,1,0
0001000702,0,-0.7511,-0.2744,-0.5752,0.1725,1837,410,-181,1747,307,-355,226,-53,-185,48.6993,-73.4693,168.5494,1,0
0001000723,0,-0.7495,-0.2825,-0.5733,0.1728,1828,435,-195,1607,195,-267,206,-67,-250,50.9038,-73.1208,167.0860,1,0
0001000744,0,-0.7469,-0.2912,-0.5724,0.1721,1828,435,-195,1703,103,-423,158,-2,-294,53.6621,-72.8164,165.0318,1,0
0001000765,0,-0.7440,-0.2989,-0.5729,0.1700,1821,465,-198,1707,147,-519,86,5,-296,56.5900,-72.5794,162.6118,1,0
0001000786,0,-0.7409,-0.3070,-0.5738,0.1659,1808,495,-202,1811,231,-503,52,-6,-276,59.9827,-72.2072,159.5863,1,0
0001000807,0,-0.7384,-0.3130,-0.5747,0.1631,1801,522,-203,1863,355,-491,60,19,-250,62.4108,-71.9401,157.4547,1,0
0001000828,0,-0.7353,-0.3187,-0.5761,0.1611,1791,545,-201,1955,703,-603,79,64,-242,64.8100,-71.7718,155.3780,1,0
0001000849,0,-0.7314,-0.3247,-0.5779,0.1603,1781,569,-196,1959,783,-695,136,93,-236,67.2764,-71.6926,153.3711,1,0
0001000870,0,-0.7273,-0.3318,-0.5789,0.1609,1773,593,-197,1827,659,-627,209,76,-237,69.6953,-71.5847,151.6424,1,0
0001000891,0,-0.7224,-0.3406,-0.5798,0.1609,1762,616,-197,1811,643,-531,130,55,-250,72.6378,-71.3289,149.4841,1,0
0001000912,0,-0.7189,-0.3466,-0.5810,0.1597,1762,616,-197,1767,579,-463,98,59,-227,74.8556,-71.0939,147.7110,1,0
0001000933,0,-0.7155,-0.3511,-0.5829,0.1581,1755,640,-193,1723,523,-415,16,93,-205,76.9388,-70.9398,145.8916,1,0
0001000954,0,-0.7121,-0.3538,-0.5861,0.1556,1743,658,-182,1839,395,-343,-51,108,-176,78.9824,-70.8768,143.8680,1,0
0001000975,0,-0.7098,-0.3547,-0.5893,0.1519,1739,671,-169,1907,339,-315,-146,56,-136,80.5718,-70.7945,142.0279,1,0
0001000996,0,-0.7093,-0.3525,-0.5930,0.1448,1732,680,-156,1967,383,-319,-280,5,-75,81.6449,-70.6168,140.1565,1,0
0001001017,0,-0.7102,-0.3479,-0.5963,0.1379,1732,683,-138,1931,483,-379,-357,-1,-13,81.9146,-70.5485,138.8837,1,0
0001001038,0,-0.7119,-0.3416,-0.5995,0.1310,1732,677,-120,1875,675,-419,-382,-18,39,81.7325,-70.5642,137.9027,1,0
0001001059,0,-0.7143,-0.3344,-0.6021,0.1243,1734,670,-107,1811,727,-399,-387,-42,70,81.1075,-70.6108,137.3110,1,0
0001001080,0,-0.7169,-0.3267,-0.6046,0.1177,1734,670,-107,1755,715,-427,-393,-37,86,80.3336,-70.6829,136.8421,1,0
0001001101,0,-0.7202,-0.3167,-0.6075,0.1097,1739,658,-89,1735,623,-419,-396,-45,92,79.2525,-70.8112,136.3554,1,0
0001001122,0,-0.7229,-0.3084,-0.6097,0.1029,1742,645,-78,1787,603,-355,-412,-52,97,78.3117,-70.8993,135.9991,1,0
0001001143,0,-0.7257,-0.2997,-0.6118,0.0959,1749,635,-63,1795,543,-335,-431,-62,107,77.2673,-70.9935,135.6831,1,0
0001001164,0,-0.7289,-0.2904,-0.6136,0.0887,1753,620,-51,1795,499,-331,-445,-73,122,76.0310,-71.0885,135.5104,1,0
0001001185,0,-0.7321,-0.2804,-0.6154,0.0814,1759,600,-37,1819,515,-319,-479,-72,155,74.6304,-71.2240,135.4239,1,0
0001001206,0,-0.7363,-0.2664,-0.6178,0.0722,1766,580,-22,1839,567,-307,-499,-63,175,72.6600,-71.4849,135.4243,1,0
0001001227,0,-0.7395,-0.2547,-0.6197,0.0650,1773,555,-9,1871,623,-331,-494,-65,192,70.9714,-71.7455,135.4952,1,0
0001001248,0,-0.7428,-0.2429,-0.6211,0.0585,1773,555,-9,1847,655,-339,-464,-75,214,69.0341,-72.0290,135.8844,1,0
0001001269,0,-0.7462,-0.2313,-0.6220,0.0529,1781,528,0,1831,699,-347,-422,-84,229,66.8805,-72.3230,136.5893,1,0
0001001290,0,-0.7495,-0.2202,-0.6224,0.0483,1789,501,6,1799,787,-375,-367,-90,232,64.5822,-72.6077,137.5610,1,0
0001001311,0,-0.7535,-0.2077,-0.6222,0.0441,1799,473,9,1791,795,-367,-295,-85,227,61.6137,-72.9398,139.1341,1,0
0001001332,0,-0.7564,-0.1990,-0.6217,0.0419,1805,447,8,1815,859,-407,-247,-83,216,59.2926,-73.1741,140.5412,1,0
0001001353,0,-0.7591,-0.1914,-0.6209,0.0405,1813,425,6,1823,795,-375,-196,-85,191,57.0692,-73.3603,142.0127,1,0
0001001374,0,-0.7616,-0.1852,-0.6198,0.0391,1819,407,2,1775,687,-359,-172,-93,157,55.0565,-73.4468,143.3895,1,0
0001001395,0,-0.7640,-0.1797,-0.6186,0.0377,1825,393,-2,1771,699,-379,-147,-90,137,53.2421,-73.4744,144.6252,1,0
0001001416,0,-0.7668,-0.1738,-0.6168,0.0367,1825,393,-2,1771,711,-355,-97,-93,130,51.0658,-73.4794,146.2366,1,0
0001001437,0,-0.7689,-0.1704,-0.6151,0.0370,1827,377,-8,1759,707,-299,-38,-87,118,49.4471,-73.4497,147.5964,1,0
0001001458,0,-0.7707,-0.1682,-0.6134,0.0385,1832,366,-17,1751,739,-327,31,-72,110,48.0051,-73.4258,148.9776,1,0
0001001479,0,-0.7721,-0.1675,-0.6116,0.0419,1836,355,-26,1759,803,-383,132,-54,109,46.6629,-73.4329,150.5481,1,0
0001001500,0,-0.7731,-0.1690,-0.6095,0.0488,1838,345,-37,1739,875,-375,242,-22,95,45.2436,-73.4972,152.6634,1,0
0001001521,0,-0.7732,-0.1722,-0.6078,0.0562,1842,342,-45,1723,839,-311,335,-2,68,44.4241,-73.5760,154.3601,1,0
0001001542,0,-0.7725,-0.1777,-0.6061,0.0652,1842,342,-56,1847,703,-279,442,19,31,44.0542,-73.6627,155.9342,1,0
0001001563,0,-0.7713,-0.1854,-0.6042,0.0755,1842,347,-69,1907,651,-383,520,20,-2,44.0863,-73.7377,157.3973,1,0
0001001584,0,-0.7698,-0.1948,-0.6016,0.0868,1842,347,-69,1931,559,-455,584,1,-26,44.3065,-73.7422,158.8973,1,0
0001001605,0,-0.7676,-0.2086,-0.5974,0.1021,1842,353,-85,1911,467,-423,673,0,-53,44.8655,-73.6826,160.7843,1,0
0001001626,0,-0.7651,-0.2214,-0.5934,0.1157,1841,365,-108,1851,363,-447,758,-8,-76,45.5594,-73.6071,162.3188,1,0
0001001647,0,-0.7622,-0.2360,-0.5885,0.1306,1840,377,-133,1783,143,-419,826,-22,-93,46.4300,-73.4780,163.9408,1,0
0001001668,0,-0.7585,-0.2510,-0.5835,0.1459,1837,389,-158,1799,-87,-399,833,17,-99,47.4484,-73.4028,165.5057,1,0
0001001689,0,-0.7538,-0.2654,-0.5790,0.1614,1837,398,-177,1843,-231,-419,821,55,-83,48.5060,-73.4625,167.0092,1,0
0001001710,0,-0.7474,-0.2818,-0.5738,0.1811,1834,403,-194,1791,-359,-423,783,80,-41,49.4399,-73.6836,169.1778,1,0
0001001731,0,-0.7421,-0.2933,-0.5698,0.1963,1835,405,-206,1779,-271,-351,725,89,-19,49.8183,-73.9289,171.1118,1,0
0001001752,0,-0.7367,-0.3036,-0.5664,0.2102,1835,405,-206,1847,-271,-355,667,105,-34,50.2547,-74.2138,172.7838,1,0
0001001773,0,-0.7307,-0.3137,-0.5636,0.2234,1833,409,-216,1943,-483,-343,645,130,-55,50.9116,-74.5640,174.1647,1,0
0001001794,0,-0.7247,-0.3229,-0.5615,0.2350,1832,414,-222,1999,-515,-387,522,124,-59,51.7325,-74.9390,175.1642,1,0
0001001815,0,-0.7180,-0.3322,-0.5595,0.2470,1831,417,-225,2015,-431,-379,434,117,-59,52.6588,-75.3768,176.1136,1,0
0001001836,0,-0.7134,-0.3385,-0.5584,0.2544,1830,425,-228,1967,-295,-403,365,95,-67,53.4648,-75.6751,176.5281,1,0
0001001857,0,-0.7089,-0.3447,-0.5573,0.2610,1828,432,-230,1903,-231,-435,371,85,-79,54.4526,-75.9330,176.6783,1,0
0001001878,0,-0.7043,-0.3514,-0.5557,0.2678,1826,440,-235,1903,-287,-403,381,80,-87,55.5413,-76.1554,176.7945,1,0
0001001899,0,-0.6996,-0.3579,-0.5544,0.2741,1824,448,-239,1907,-303,-419,350,74,-86,56.7363,-76.3841,176.7537,1,0
0001001920,0,-0.6942,-0.3654,-0.5526,0.2813,1824,448,-239,1911,-315,-451,326,65,-81,58.1053,-76.6295,176.7227,1,0
0001001941,0,-0.6903,-0.3711,-0.5510,0.2866,1821,454,-244,1859,-347,-371,309,41,-81,59.1476,-76.7636,176.6859,1,0
0001001962,0,-0.6869,-0.3765,-0.5493,0.2911,1819,460,-253,1835,-383,-347,274,28,-75,60.2219,-76.8465,176.5232,1,0
0001001983,0,-0.6840,-0.3811,-0.5478,0.2948,1815,469,-258,1907,-359,-403,210,23,-67,61.0987,-76.9069,176.4123,1,0
0001002004,0,-0.6818,-0.3844,-0.5469,0.2969,1814,475,-261,1935,-311,-511,122,8,-61,61.9667,-76.9424,176.0504,1,0
0001002025,0,-0.6801,-0.3879,-0.5459,0.2984,1812,480,-268,1959,-335,-503,99,-17,-63,62.9485,-76.9017,175.5361,1,0
0001002046,0,-0.6795,-0.3901,-0.5451,0.2984,1811,485,-271,1951,-379,-491,26,-36,-56,63.6376,-76.7878,175.0531,1,0
0001002067,0,-0.6799,-0.3909,-0.5448,0.2969,1810,490,-274,1911,-435,-463,-48,-50,-36,64.1794,-76.6357,174.4603,1,0
0001002088,0,-0.6813,-0.3903,-0.5448,0.2944,1810,490,-274,1859,-499,-367,-137,-63,-12,64.2772,-76.4434,174.0846,1,0
