Time(ms),Interval,Qx,Qy,Qz,Qw,Mx,My,Mz,Ax,Ay,Az,Rx,Ry,Rz,H1,P1,R1,H2,P2,R2,CalStable,MagTransient
0000979744,7,0.2853,0.5414,-0.3077,0.7286,-258,668,723,-1999,167,527,0,-4,3,328.1552,74.6838,18.2092,1,1
0000979765,7,0.2854,0.5412,-0.3077,0.7287,-257,669,724,-2011,159,531,10,-11,6,328.1825,74.6509,18.2555,1,1
0000979786,7,0.2856,0.5408,-0.3078,0.7288,-257,669,724,-2007,143,535,8,-10,6,328.2178,74.6132,18.3221,1,1
0000979807,7,0.2857,0.5406,-0.3078,0.7290,-255,671,724,-1991,151,539,-1,-5,3,328.2288,74.5859,18.3392,1,1
0000979828,7,0.2857,0.5405,-0.3078,0.7290,-254,672,725,-1999,155,515,1,0,2,328.2455,74.5710,18.3535,1,1
0000979849,7,0.2857,0.5405,-0.3078,0.7290,-255,670,725,-2011,135,515,2,1,2,328.2764,74.5702,18.3902,1,1
0000979870,7,0.2858,0.5406,-0.3078,0.7289,-255,670,725,-2007,135,531,1,8,-2,328.2933,74.5913,18.4159,1,1
0000979891,7,0.2859,0.5409,-0.3077,0.7287,-254,669,725,-1991,167,535,-5,16,-2,328.3073,74.6337,18.4218,1,1
0000979912,7,0.2859,0.5413,-0.3075,0.7285,-254,668,725,-1991,151,539,-5,15,0,328.3587,74.6832,18.4524,1,1
0000979933,7,0.2859,0.5416,-0.3074,0.7283,-255,668,726,-1991,151,551,2,15,-3,328.3894,74.7237,18.4814,1,1
0000979954,7,0.2861,0.5419,-0.3074,0.7280,-255,668,726,-2003,151,527,4,18,-3,328.4130,74.7758,18.5138,1,1
0000979975,7,0.2864,0.5423,-0.3075,0.7276,-254,664,724,-1995,163,547,6,20,-2,328.4529,74.8461,18.5796,1,1
0000979996,7,0.2866,0.5427,-0.3074,0.7272,-256,667,724,-1991,163,551,0,23,-3,328.5033,74.9153,18.6382,1,1
0000980017,7,0.2867,0.5432,-0.3073,0.7269,-257,665,724,-1987,135,535,-4,22,-4,328.5387,74.9828,18.6638,1,1
0000980038,7,0.2867,0.5437,-0.3071,0.7266,-257,665,724,-1983,151,551,-1,16,-4,328.5635,75.0464,18.6725,1,1
0000980059,7,0.2868,0.5440,-0.3072,0.7263,-258,662,722,-2027,155,547,8,10,-2,328.5629,75.0929,18.6870,1,1
0000980080,7,0.2870,0.5442,-0.3072,0.7260,-258,664,723,-2007,143,527,4,20,-4,328.5828,75.1434,18.7291,1,1
0000980101,7,0.2871,0.5447,-0.3072,0.7256,-259,661,722,-1979,163,515,-4,21,-7,328.5871,75.2130,18.7290,1,1
0000980122,7,0.2870,0.5452,-0.3071,0.7253,-260,660,721,-1971,191,523,-4,16,-8,328.5668,75.2750,18.6920,1,1
0000980143,7,0.2871,0.5455,-0.3073,0.7250,-260,660,721,-2007,179,499,16,11,-7,328.5245,75.3202,18.6667,1,1
0000980164,7,0.2876,0.5458,-0.3077,0.7244,-262,656,721,-2027,127,535,19,24,-11,328.4709,75.3940,18.6892,1,1
0000980185,7,0.2877,0.5462,-0.3078,0.7239,-263,658,721,-2007,123,583,0,17,-10,328.4202,75.4730,18.6648,1,1
0000980206,7,0.2875,0.5463,-0.3078,0.7240,-262,654,721,-1963,175,607,-16,-12,2,328.3786,75.4715,18.5925,1,1
0000980227,7,0.2871,0.5458,-0.3075,0.7247,-262,654,721,-1951,187,647,-11,-37,18,328.4187,75.3730,18.5835,1,1
0000980248,7,0.2871,0.5445,-0.3075,0.7256,-258,653,725,-2003,175,639,16,-65,21,328.4620,75.1885,18.6334,1,1
0000980269,7,0.2873,0.5428,-0.3081,0.7266,-255,653,726,-2047,151,527,20,-38,10,328.4227,74.9663,18.6735,1,1
0000980290,7,0.2875,0.5423,-0.3084,0.7267,-255,648,726,-2027,155,487,14,-4,-3,328.3839,74.9192,18.6853,1,1
0000980311,7,0.2878,0.5425,-0.3088,0.7263,-255,648,726,-2087,159,403,22,28,-15,328.3073,74.9721,18.6694,1,1
0000980332,7,0.2887,0.5438,-0.3091,0.7248,-262,645,724,-2107,87,311,38,98,-27,328.3268,75.2011,18.7868,1,1
0000980353,7,0.2902,0.5467,-0.3094,0.7220,-271,643,718,-2063,59,311,45,189,-55,328.4243,75.6734,19.0180,1,1
0000980374,7,0.2923,0.5515,-0.3097,0.7172,-287,639,709,-2031,119,415,53,199,-52,328.6152,76.4671,19.3818,1,1
0000980395,7,0.2947,0.5547,-0.3102,0.7136,-287,639,709,-2007,191,495,93,171,-31,328.9316,77.0315,19.9259,1,1
0000980416,7,0.2978,0.5569,-0.3111,0.7102,-300,641,702,-2027,179,535,125,153,-22,329.3780,77.5089,20.7128,1,1
0000980437,7,0.3012,0.5589,-0.3123,0.7066,-308,647,693,-2019,131,563,133,160,-30,329.8236,77.9794,21.5529,1,1
0000980458,7,0.3044,0.5614,-0.3135,0.7028,-323,649,684,-1975,135,567,115,171,-38,330.2705,78.5018,22.3713,1,1
0000980479,7,0.3082,0.5643,-0.3149,0.6982,-323,649,684,-1979,159,527,117,154,-29,330.8713,79.1186,23.4039,1,1
0000980500,7,0.3113,0.5664,-0.3157,0.6948,-336,652,677,-1987,175,419,110,159,-12,331.6288,79.5763,24.4979,1,1
0000980521,7,0.3145,0.5685,-0.3162,0.6913,-348,653,669,-2059,131,347,112,167,-13,332.6480,80.0407,25.8372,1,1
0000980542,7,0.3180,0.5714,-0.3166,0.6871,-363,653,658,-2087,123,283,114,220,-25,333.9071,80.6103,27.4267,1,1
0000980563,7,0.3219,0.5749,-0.3172,0.6821,-382,656,645,-2071,175,291,153,242,-40,335.5646,81.2995,29.4577,1,1
0000980584,7,0.3274,0.5792,-0.3187,0.6751,-382,656,645,-2039,231,303,177,243,-47,337.8823,82.1848,32.3897,1,1
0000980605,7,0.3318,0.5821,-0.3205,0.6697,-398,661,631,-2087,247,299,184,211,-50,339.8362,82.8386,34.8805,1,1
0000980626,7,0.3362,0.5845,-0.3225,0.6643,-416,665,618,-2111,227,295,198,207,-53,341.8677,83.4357,37.4876,1,1
0000980647,7,0.3408,0.5871,-0.3248,0.6585,-433,665,603,-2115,215,271,212,228,-61,344.4970,84.0621,40.7361,1,1
0000980668,7,0.3457,0.5903,-0.3269,0.6520,-433,665,603,-2127,251,235,203,298,-65,348.5437,84.7730,45.4072,1,1
0000980689,7,0.3522,0.5962,-0.3281,0.6425,-454,662,584,-2143,351,155,171,369,-61,358.7171,85.7703,56.2653,1,1
0000980710,7,0.3573,0.6023,-0.3277,0.6342,-481,660,562,-2155,339,79,135,414,-59,13.8383,86.4714,71.8050,1,1
0000980731,7,0.3619,0.6089,-0.3266,0.6258,-508,651,538,-2155,447,31,110,419,-65,35.3231,86.8280,93.6154,1,1
0000980752,7,0.3665,0.6153,-0.3250,0.6176,-508,651,538,-2275,703,-47,120,412,-20,57.5371,86.6297,116.1086,1,1
0000980773,7,0.3725,0.6208,-0.3236,0.6093,-530,642,513,-2291,707,-79,224,402,6,73.6922,85.9292,132.6988,1,1
0000980794,7,0.3821,0.6252,-0.3251,0.5979,-552,643,487,-2307,431,-39,354,329,-38,85.5374,84.8723,145.6124,1,1
0000980815,7,0.3890,0.6274,-0.3296,0.5886,-571,633,463,-2195,271,-203,350,271,-111,92.6032,84.2536,153.7676,1,1
0000980836,7,0.3936,0.6309,-0.3327,0.5799,-571,633,463,-2023,231,-323,195,318,-112,98.9865,83.5561,160.9023,1,1
0000980857,7,0.3969,0.6356,-0.3325,0.5726,-590,619,442,-1679,-259,-279,69,260,-47,103.2455,82.6970,165.4893,1,1
0000980878,7,0.3989,0.6388,-0.3315,0.5683,-603,600,428,-1543,-611,-519,-15,157,-13,105.1503,82.0944,167.5063,1,1
0000980899,7,0.3996,0.6420,-0.3281,0.5662,-606,591,419,-1379,-307,-203,-105,104,66,105.6320,81.5511,167.7556,1,0
0000980920,7,0.4017,0.6407,-0.3239,0.5686,-598,610,420,-1551,495,0,-33,-42,272,101.8410,81.3946,163.7677,1,0
0000980941,7,0.4088,0.6346,-0.3204,0.5723,-598,610,420,-1599,559,327,181,-103,412,94.0658,81.2303,156.3431,1,0
0000980962,7,0.4181,0.6246,-0.3199,0.5768,-579,655,420,-1791,235,375,283,-276,396,84.4102,81.1436,147.5344,1,0
0000980983,7,0.4251,0.6134,-0.3224,0.5823,-554,687,427,-1763,-115,599,169,-407,283,74.8078,81.2931,138.8329,1,0
0000981004,7,0.4258,0.6006,-0.3249,0.5937,-532,696,447,-1843,-55,731,-85,-475,208,61.7698,81.8024,126.0726,1,0
0000981025,7,0.4214,0.5929,-0.3241,0.6049,-532,696,447,-1967,167,859,-251,-463,163,51.0814,82.0503,114.8733,1,0
0000981046,7,0.4141,0.5853,-0.3233,0.6176,-515,683,470,-2019,295,879,-284,-569,101,38.8926,82.1901,101.9093,1,0
0000981067,7,0.4048,0.5750,-0.3261,0.6318,-494,662,504,-1987,375,639,-196,-774,30,22.9703,82.1359,85.3726,1,0
0000981088,7,0.3931,0.5591,-0.3339,0.6491,-474,643,540,-2315,679,779,-142,-773,25,2.3068,81.2623,64.3717,1,0
0000981109,7,0.3855,0.5469,-0.3378,0.6619,-474,643,540,-3099,1287,-595,-101,-665,101,351.5955,79.8988,53.3822,1,0
0000981130,7,0.3815,0.5383,-0.3398,0.6703,-457,626,564,-2591,783,-1103,-64,-328,71,346.7053,78.7639,48.3645,1,0
0000981151,7,0.3770,0.5335,-0.3428,0.6751,-453,603,577,-2415,471,-239,-23,-407,-94,342.7977,78.1795,44.3539,1,0
0000981172,7,0.3726,0.5241,-0.3521,0.6801,-442,588,594,-2123,-91,-51,344,-569,-146,336.4398,77.2250,38.5165,1,0
0000981193,7,0.3743,0.5085,-0.3696,0.6817,-442,588,594,-2203,-75,139,528,-460,-122,329.5340,75.9293,33.5415,1,0
0000981214,7,0.3775,0.4981,-0.3814,0.6811,-432,596,602,-2367,-151,411,403,-342,-87,325.9915,75.1201,31.5199,1,0
0000981235,7,0.3759,0.4926,-0.3877,0.6824,-427,592,609,-2391,271,371,-11,-222,-85,323.4412,74.5475,29.4774,1,0
0000981256,7,0.3700,0.4931,-0.3873,0.6855,-432,559,618,-2351,327,215,-288,-76,-46,322.1467,74.3023,27.5929,1,0
0000981277,7,0.3629,0.4965,-0.3838,0.6889,-442,521,622,-2147,87,-31,-326,22,-37,321.5981,74.2684,26.0164,1,0
0000981298,7,0.3561,0.5028,-0.3790,0.6905,-442,521,622,-1871,-255,179,-281,125,-74,321.3979,74.6373,24.6620,1,0
0000981319,7,0.3507,0.5089,-0.3762,0.6903,-456,484,619,-2063,-407,291,-242,101,-118,320.7741,75.1132,23.2189,1,0
0000981340,7,0.3452,0.5143,-0.3743,0.6901,-469,452,617,-2199,-359,507,-241,81,-116,319.7287,75.5180,21.4379,1,0
0000981361,7,0.3394,0.5197,-0.3709,0.6908,-479,416,618,-2043,-191,547,-341,98,-55,319.1876,75.8667,19.9977,1,0
0000981382,7,0.3319,0.5257,-0.3647,0.6932,-479,416,618,-1987,-199,503,-460,75,-15,319.1837,76.1424,18.6785,1,0
0000981403,7,0.3210,0.5341,-0.3549,0.6970,-487,379,620,-2039,-59,395,-521,119,-7,319.4832,76.4914,17.0188,1,0
0000981424,7,0.3132,0.5410,-0.3472,0.6991,-499,343,619,-1971,283,355,-411,114,-5,319.8283,76.8659,15.8975,1,0
0000981445,7,0.3084,0.5451,-0.3425,0.7003,-504,321,619,-1935,407,335,-203,49,-7,320.0336,77.0908,15.2217,1,1
0000981466,7,0.3069,0.5462,-0.3415,0.7006,-504,321,619,-2019,235,343,9,4,-25,319.8807,77.1558,14.8391,1,1
0000981487,7,0.3080,0.5456,-0.3436,0.6996,-508,317,618,-2055,-3,415,123,-7,-43,319.3834,77.1690,14.6290,1,1
0000981508,7,0.3100,0.5442,-0.3473,0.6980,-511,322,618,-2019,71,443,118,-31,-51,318.4741,77.1524,14.2397,1,1
0000981529,7,0.3107,0.5432,-0.3498,0.6972,-513,319,617,-1987,179,379,88,-19,-44,317.7260,77.1018,13.8017,1,1
0000981550,7,0.3122,0.5426,-0.3518,0.6960,-513,319,617,-2007,-15,507,112,11,-22,317.3256,77.1422,13.7140,1,1
0000981571,7,0.3146,0.5412,-0.3540,0.6949,-517,322,617,-1987,-91,607,147,-25,2,317.1919,77.1131,14.0095,1,1
0000981592,7,0.3166,0.5388,-0.3559,0.6948,-517,331,618,-1959,-23,595,85,-93,38,317.2496,76.9340,14.4414,1,1
0000981613,7,0.3175,0.5358,-0.3562,0.6966,-515,338,621,-2071,27,371,-15,-53,71,317.7864,76.5651,15.1168,1,1
0000981634,7,0.3168,0.5364,-0.3533,0.6979,-515,338,621,-2135,-11,175,-149,47,69,318.7551,76.5527,15.7471,1,1
0000981655,7,0.3149,0.5385,-0.3491,0.6993,-519,332,621,-2059,-91,207,-171,45,67,319.7980,76.6506,16.2223,1,1
0000981676,7,0.3140,0.5396,-0.3457,0.7006,-523,329,622,-2023,-175,383,-89,14,80,320.8430,76.6751,16.8637,1,1
0000981697,7,0.3144,0.5390,-0.3437,0.7018,-519,332,623,-2059,-227,551,-3,-34,94,321.8523,76.5608,17.7289,1,1
0000981718,7,0.3155,0.5374,-0.3414,0.7037,-520,345,626,-2067,-115,551,-37,-16,111,323.2743,76.3278,19.0586,1,1
0000981739,7,0.3160,0.5373,-0.3381,0.7051,-520,345,626,-2063,-111,535,-76,34,116,324.7289,76.2547,20.2560,1,1
0000981760,7,0.3170,0.5382,-0.3348,0.7055,-520,351,626,-2103,139,555,-41,90,92,326.2653,76.3340,21.5854,1,1
0000981781,7,0.3184,0.5404,-0.3316,0.7047,-526,357,623,-1959,399,539,-40,153,55,327.8114,76.6129,22.9439,1,1
0000981802,7,0.3202,0.5428,-0.3295,0.7030,-536,360,617,-1887,347,627,40,137,27,329.1225,76.9685,24.2114,1,1
0000981823,7,0.3241,0.5442,-0.3298,0.7000,-536,360,617,-1899,155,563,112,108,13,330.1790,77.3468,25.6311,1,1
0000981844,7,0.3270,0.5451,-0.3297,0.6980,-543,367,613,-1995,15,575,68,97,38,331.1525,77.5869,26.8461,1,1
0000981865,7,0.3291,0.5461,-0.3282,0.6970,-549,377,609,-2023,99,479,-6,91,68,332.4838,77.7507,28.2234,1,1
0000981886,7,0.3301,0.5478,-0.3249,0.6967,-557,380,607,-2071,287,335,-100,113,90,334.2173,77.9038,29.7321,1,1
0000981907,7,0.3304,0.5501,-0.3206,0.6968,-557,380,607,-2027,407,303,-102,115,88,336.2369,78.0682,31.3758,1,1
0000981928,7,0.3315,0.5525,-0.3162,0.6963,-562,376,603,-1975,435,327,-31,109,75,338.6630,78.2619,33.4843,1,1
0000981949,7,0.3337,0.5535,-0.3144,0.6953,-570,387,600,-1947,379,371,54,83,59,340.3036,78.3886,35.1596,1,1
0000981970,7,0.3370,0.5532,-0.3142,0.6940,-575,397,596,-1939,327,387,131,49,67,341.6209,78.4298,36.7670,1,1
0000981991,7,0.3414,0.5520,-0.3146,0.6927,-575,397,596,-1991,279,375,147,42,94,343.0182,78.3757,38.6030,1,1
0000982012,7,0.3465,0.5506,-0.3140,0.6915,-576,415,594,-2059,259,383,86,47,102,344.9920,78.2648,40.9921,1,1
0000982033,7,0.3491,0.5503,-0.3121,0.6913,-580,428,592,-2083,275,339,5,52,107,346.6742,78.1635,42.7489,1,1
0000982054,7,0.3503,0.5508,-0.3090,0.6917,-585,433,590,-2087,351,311,-71,67,97,348.4041,78.0805,44.3059,1,1
0000982075,7,0.3504,0.5520,-0.3055,0.6922,-588,429,589,-2075,395,239,-93,66,69,349.9565,78.0542,45.5501,1,1
0000982096,7,0.3502,0.5534,-0.3027,0.6924,-588,429,589,-2019,395,231,-57,60,42,351.2203,78.0755,46.5358,1,1
0000982117,7,0.3509,0.5541,-0.3008,0.6924,-594,432,589,-1971,507,271,12,20,42,352.3225,78.0660,47.5210,1,1
0000982138,7,0.3527,0.5535,-0.3006,0.6920,-596,438,587,-2059,463,235,74,14,49,352.9245,77.9847,48.2746,1,1
0000982159,7,0.3553,0.5527,-0.3008,0.6913,-598,447,584,-2071,323,227,101,25,48,353.6686,77.9095,49.2897,1,1
0000982180,7,0.3579,0.5520,-0.3010,0.6903,-598,447,584,-2035,135,263,80,29,46,354.4249,77.8583,50.3091,1,1
0000982201,7,0.3599,0.5516,-0.3006,0.6898,-603,456,583,-2019,215,243,22,26,57,355.2017,77.7973,51.2369,1,1
0000982222,7,0.3611,0.5515,-0.2988,0.6900,-605,457,582,-2007,303,219,-37,24,66,356.2352,77.6703,52.2208,1,1
0000982243,7,0.3609,0.5518,-0.2965,0.6909,-605,458,583,-1995,323,207,-85,8,55,356.9755,77.5571,52.7311,1,1
0000982264,7,0.3599,0.5519,-0.2942,0.6924,-605,458,583,-2051,263,235,-91,-18,57,357.3313,77.4068,52.7967,1,1
0000982285,7,0.3591,0.5515,-0.2916,0.6942,-606,457,587,-2127,211,207,-109,-18,87,357.7231,77.1846,52.8817,1,1
0000982306,7,0.3578,0.5517,-0.2875,0.6964,-605,458,589,-2163,283,119,-174,13,113,358.5887,76.9344,53.2699,1,1
0000982327,7,0.3552,0.5531,-0.2803,0.6995,-605,456,592,-2003,467,103,-245,37,116,0.1984,76.6473,54.0021,1,1
0000982348,7,0.3523,0.5543,-0.2746,0.7023,-605,456,592,-2007,543,103,-233,3,90,1.1732,76.4311,54.1985,1,1
0000982369,7,0.3501,0.5547,-0.2707,0.7046,-605,450,596,-2043,571,143,-127,-12,67,1.6603,76.2268,54.1483,1,1
0000982390,7,0.3498,0.5545,-0.2687,0.7057,-604,454,598,-2047,511,183,-35,1,57,2.0742,76.0684,54.3559,1,1
0000982411,7,0.3503,0.5543,-0.2674,0.7061,-603,457,599,-1967,379,211,-22,4,45,2.5281,75.9457,54.7386,1,1
0000982432,7,0.3502,0.5540,-0.2659,0.7069,-604,459,601,-1971,447,299,-35,-9,34,2.8592,75.8161,54.9398,1,1
0000982453,7,0.3502,0.5537,-0.2652,0.7075,-604,459,601,-2031,503,311,-8,-14,23,2.9090,75.7217,54.9254,1,1
0000982474,7,0.3505,0.5532,-0.2651,0.7077,-602,460,601,-2015,459,295,18,-7,12,2.9249,75.6598,54.9701,1,1
0000982495,7,0.3510,0.5529,-0.2652,0.7076,-603,461,602,-1979,387,315,18,0,8,2.9756,75.6325,55.0836,1,1
0000982516,7,0.3513,0.5527,-0.2652,0.7077,-604,466,603,-1991,391,351,1,-11,13,2.9969,75.5978,55.1284,1,1
0000982537,7,0.3515,0.5522,-0.2652,0.7080,-604,466,603,-1987,411,315,10,-11,10,2.9390,75.5289,55.0924,1,1
0000982558,7,0.3518,0.5519,-0.2653,0.7080,-603,466,604,-1975,451,295,12,-3,5,2.9347,75.5028,55.1258,1,1
0000982579,7,0.3522,0.5516,-0.2655,0.7079,-603,470,604,-1979,443,271,20,-9,4,2.8963,75.4786,55.1386,1,1
0000982600,7,0.3528,0.5512,-0.2659,0.7078,-604,471,604,-1947,415,259,36,-4,4,2.8477,75.4540,55.1865,1,1
0000982621,7,0.3535,0.5508,-0.2664,0.7075,-604,471,604,-1963,435,311,38,-10,6,2.8410,75.4341,55.2952,1,1
0000982642,7,0.3546,0.5500,-0.2672,0.7073,-601,473,603,-2007,443,323,51,-13,9,2.7441,75.3805,55.3699,1,1
0000982663,7,0.3557,0.5494,-0.2680,0.7070,-601,479,603,-2059,391,335,56,-5,9,2.7203,75.3426,55.5226,1,1
0000982684,7,0.3566,0.5489,-0.2684,0.7068,-601,482,603,-2047,419,335,26,-10,9,2.7119,75.3084,55.6348,1,1
0000982705,7,0.3568,0.5484,-0.2685,0.7070,-601,482,603,-2031,447,315,-1,-18,10,2.6090,75.2491,55.5618,1,1
0000982726,7,0.3568,0.5480,-0.2685,0.7073,-599,482,604,-2015,439,279,2,-6,6,2.5339,75.2037,55.4889,1,1
0000982747,7,0.3571,0.5481,-0.2686,0.7071,-598,484,604,-1987,427,271,15,9,-3,2.6001,75.2159,55.5975,1,1
0000982768,7,0.3573,0.5482,-0.2688,0.7068,-601,483,603,-1955,447,275,6,8,-4,2.6585,75.2433,55.6858,1,1
0000982789,7,0.3574,0.5482,-0.2690,0.7067,-601,483,603,-1995,467,315,13,-5,-4,2.6279,75.2541,55.6841,1,1
0000982810,7,0.3578,0.5479,-0.2695,0.7065,-598,485,603,-1999,407,327,35,-4,-5,2.5309,75.2530,55.6660,1,1
0000982831,7,0.3583,0.5477,-0.2702,0.7062,-601,486,603,-1971,367,323,34,-2,-7,2.4527,75.2628,55.6997,1,1
0000982852,7,0.3588,0.5474,-0.2709,0.7058,-601,485,603,-1983,383,343,24,-5,-5,2.3390,75.2771,55.6965,1,1
0000982873,7,0.3591,0.5472,-0.2713,0.7057,-600,487,603,-2007,415,323,17,-2,2,2.2791,75.2693,55.6981,1,1
0000982894,7,0.3595,0.5471,-0.2713,0.7056,-600,487,603,-1987,419,311,9,3,5,2.3363,75.2623,55.7926,1,1
0000982915,7,0.3596,0.5470,-0.2714,0.7056,-601,488,603,-2003,395,311,0,-7,1,2.3311,75.2492,55.7998,1,1
0000982936,7,0.3591,0.5468,-0.2712,0.7060,-600,486,603,-2015,411,295,-24,-9,0,2.2001,75.2262,55.6169,1,1
0000982957,7,0.3586,0.5468,-0.2710,0.7064,-599,485,603,-2035,435,275,-16,-11,-1,2.1014,75.2104,55.4520,1,1
0000982978,7,0.3585,0.5467,-0.2711,0.7065,-599,485,603,-2063,439,259,6,-6,0,1.9990,75.1952,55.3479,1,1
0000982999,7,0.3587,0.5464,-0.2712,0.7065,-600,485,605,-2023,403,275,10,-7,4,1.9659,75.1762,55.3497,1,1
0000983020,7,0.3587,0.5461,-0.2713,0.7067,-598,486,605,-2027,411,291,-12,-16,7,1.8789,75.1400,55.2683,1,1
0000983041,7,0.3583,0.5458,-0.2709,0.7073,-596,486,606,-2027,403,303,-25,-14,10,1.7592,75.0781,55.0761,1,1
0000983062,7,0.3579,0.5458,-0.2704,0.7078,-596,486,606,-2023,407,287,-28,-1,10,1.7690,75.0418,55.0036,1,1
0000983083,7,0.3574,0.5460,-0.2697,0.7081,-598,482,607,-2007,439,283,-34,1,10,1.8535,75.0187,54.9869,1,1
0000983104,7,0.3570,0.5461,-0.2691,0.7085,-596,484,607,-2007,459,287,-23,-1,6,1.9046,74.9976,54.9474,1,1
0000983125,7,0.3568,0.5462,-0.2688,0.7086,-596,481,608,-1999,455,295,-9,5,1,1.9544,74.9921,54.9511,1,1
0000983146,7,0.3567,0.5464,-0.2687,0.7085,-596,481,608,-1987,439,335,1,4,-3,2.0188,75.0075,54.9970,1,1
0000983167,7,0.3568,0.5464,-0.2688,0.7084,-598,484,607,-1975,423,351,9,-2,-5,1.9811,75.0194,54.9786,1,1
0000983188,7,0.3569,0.5462,-0.2692,0.7084,-596,484,607,-1975,399,363,18,-11,-4,1.8741,75.0186,54.9235,1,1
0000983209,7,0.3571,0.5458,-0.2696,0.7084,-596,484,608,-1995,399,355,8,-15,0,1.7160,74.9983,54.8138,1,1
0000983230,7,0.3570,0.5455,-0.2696,0.7087,-596,482,608,-2007,395,339,-11,-11,6,1.6070,74.9633,54.6985,1,1
0000983251,7,0.3567,0.5453,-0.2694,0.7091,-596,482,608,-2027,403,307,-17,-9,8,1.5373,74.9169,54.5794,1,1
0000983272,7,0.3562,0.5453,-0.2689,0.7095,-595,483,609,-2011,419,295,-28,-4,5,1.5295,74.8921,54.4966,1,1
0000983293,7,0.3557,0.5454,-0.2685,0.7099,-594,481,610,-1999,443,279,-27,-6,3,1.4944,74.8719,54.3716,1,1
0000983314,7,0.3554,0.5453,-0.2683,0.7102,-594,480,610,-2007,431,295,-4,-8,2,1.4443,74.8501,54.2781,1,1
0000983335,7,0.3556,0.5451,-0.2685,0.7102,-594,480,610,-2027,423,327,14,-8,4,1.3781,74.8252,54.2460,1,1
0000983356,7,0.3558,0.5448,-0.2686,0.7102,-592,481,611,-2023,431,335,4,-4,2,1.3451,74.8022,54.2524,1,1
0000983377,7,0.3559,0.5447,-0.2686,0.7103,-594,481,612,-2015,423,323,0,0,0,1.3265,74.7944,54.2369,1,1
0000983398,7,0.3559,0.5447,-0.2687,0.7102,-594,483,611,-2015,411,311,1,0,0,1.3281,74.7965,54.2425,1,1
0000983419,7,0.3558,0.5448,-0.2687,0.7102,-594,483,611,-1995,399,311,-2,0,-1,1.3229,74.8020,54.2355,1,1
0000983440,7,0.3557,0.5448,-0.2686,0.7103,-592,477,611,-1999,411,307,-5,0,1,1.3167,74.8049,54.2131,1,1
0000983461,7,0.3558,0.5448,-0.2685,0.7103,-594,483,612,-1995,407,327,3,0,5,1.3371,74.7948,54.2294,1,1
0000983482,7,0.3559,0.5447,-0.2685,0.7103,-591,480,611,-1983,399,331,0,1,5,1.3853,74.7841,54.2829,1,1
0000983503,7,0.3559,0.5447,-0.2683,0.7104,-591,480,611,-1991,399,335,-4,-4,5,1.4006,74.7666,54.2913,1,1
0000983524,7,0.3558,0.5446,-0.2682,0.7106,-590,479,611,-2011,427,327,-11,-4,5,1.3850,74.7451,54.2464,1,1
0000983545,7,0.3556,0.5446,-0.2679,0.7108,-591,481,613,-2007,435,331,-12,3,8,1.4277,74.7264,54.2496,1,1
0000983566,7,0.3555,0.5447,-0.2675,0.7109,-590,482,613,-1995,431,331,-9,2,5,1.5142,74.7113,54.2888,1,1
0000983587,7,0.3554,0.5447,-0.2672,0.7110,-590,482,613,-2015,435,299,-9,2,4,1.5622,74.7019,54.3058,1,1
0000983608,7,0.3553,0.5448,-0.2670,0.7111,-589,480,613,-2019,451,315,-6,4,2,1.6140,74.6982,54.3320,1,1
0000983629,7,0.3553,0.5449,-0.2669,0.7111,-590,478,613,-2019,463,327,0,0,0,1.6734,74.7013,54.3793,1,1
0000983650,7,0.3554,0.5448,-0.2669,0.7111,-589,479,613,-2019,451,331,6,-1,0,1.6607,74.6977,54.3766,1,1
0000983671,7,0.3556,0.5448,-0.2671,0.7109,-589,481,613,-2007,439,327,9,3,0,1.6901,74.7013,54.4404,1,1
0000983692,7,0.3558,0.5449,-0.2671,0.7108,-589,481,613,-1983,451,335,5,9,-2,1.7351,74.7154,54.5063,1,1
0000983713,7,0.3558,0.5452,-0.2671,0.7105,-591,480,613,-1987,459,319,0,12,-7,1.8179,74.7522,54.5923,1,1
0000983734,7,0.3558,0.5455,-0.2673,0.7102,-591,480,611,-1979,435,335,8,11,-11,1.8741,74.8007,54.6561,1,1
0000983755,7,0.3560,0.5456,-0.2676,0.7099,-591,477,611,-2011,415,331,16,4,-10,1.8724,74.8426,54.6929,1,1
0000983776,7,0.3563,0.5457,-0.2681,0.7095,-591,477,611,-2003,419,335,22,7,-7,1.8666,74.8850,54.7644,1,1
0000983797,7,0.3567,0.5457,-0.2685,0.7091,-594,479,610,-1995,411,331,21,3,-6,1.8651,74.9114,54.8323,1,1
0000983818,7,0.3569,0.5457,-0.2689,0.7089,-594,479,609,-1999,423,319,12,2,-8,1.8314,74.9335,54.8491,1,1
0000983839,7,0.3569,0.5459,-0.2691,0.7087,-594,481,609,-1971,415,307,1,8,-9,1.8319,74.9678,54.8670,1,1
0000983860,7,0.3569,0.5461,-0.2692,0.7085,-594,481,609,-1987,411,303,8,7,-10,1.8405,75.0067,54.8867,1,1
0000983881,7,0.3570,0.5464,-0.2695,0.7081,-596,476,608,-1999,423,295,4,14,-8,1.8686,75.0596,54.9430,1,1
0000983902,7,0.3570,0.5468,-0.2695,0.7078,-594,475,607,-1987,431,311,-1,17,-8,1.9849,75.1127,55.0556,1,1
0000983923,7,0.3570,0.5471,-0.2696,0.7075,-598,477,606,-2019,447,319,6,12,-10,2.0473,75.1602,55.1256,1,1
0000983944,7,0.3571,0.5474,-0.2698,0.7071,-598,477,606,-2007,447,339,11,15,-13,2.1112,75.2167,55.2185,1,1
0000983965,7,0.3571,0.5479,-0.2702,0.7066,-601,476,604,-1991,447,339,4,14,-18,2.1572,75.2998,55.2929,1,1
0000983986,7,0.3570,0.5483,-0.2704,0.7062,-601,472,603,-1987,447,363,3,10,-15,2.1617,75.3647,55.3067,1,1
0000984007,7,0.3571,0.5485,-0.2708,0.7059,-604,471,604,-1991,435,351,15,8,-15,2.1370,75.4158,55.3160,1,1
0000984028,7,0.3572,0.5487,-0.2712,0.7055,-605,469,602,-1987,411,339,13,6,-15,2.1209,75.4690,55.3484,1,1
0000984049,7,0.3572,0.5487,-0.2718,0.7053,-605,469,602,-1995,423,291,11,-5,-18,1.9746,75.5088,55.2419,1,1
0000984070,7,0.3570,0.5488,-0.2725,0.7051,-605,468,602,-1991,419,283,13,-3,-20,1.7483,75.5617,55.0701,1,1
0000984091,7,0.3570,0.5487,-0.2732,0.7048,-607,468,602,-2011,419,287,22,-3,-21,1.5459,75.6082,54.9321,1,1
0000984112,7,0.3573,0.5488,-0.2740,0.7043,-607,466,601,-2015,403,303,32,5,-20,1.4239,75.6657,54.9034,1,1
0000984133,7,0.3576,0.5488,-0.2749,0.7038,-607,466,601,-2019,387,291,31,0,-23,1.3024,75.7265,54.8874,1,1
0000984154,7,0.3578,0.5488,-0.2759,0.7034,-607,463,599,-2067,403,283,24,-4,-29,1.0674,75.7847,54.7478,1,1
0000984175,7,0.3577,0.5490,-0.2769,0.7028,-610,464,599,-2043,427,235,17,11,-30,0.8388,75.8854,54.6048,1,1
0000984196,7,0.3579,0.5494,-0.2778,0.7021,-610,459,597,-1995,399,251,36,11,-33,0.7412,75.9905,54.5947,1,1
0000984217,7,0.3582,0.5493,-0.2791,0.7014,-610,459,597,-1983,383,259,53,-10,-34,0.4715,76.0739,54.4797,1,1
0000984238,7,0.3587,0.5488,-0.2808,0.7009,-612,457,597,-1999,351,267,59,-27,-29,0.0138,76.1143,54.2121,1,1
0000984259,7,0.3591,0.5479,-0.2826,0.7007,-610,461,599,-1991,323,267,62,-50,-31,359.3877,76.1166,53.7919,1,1
0000984280,7,0.3594,0.5467,-0.2851,0.7005,-608,456,599,-2043,371,275,52,-29,-43,358.4758,76.1322,53.1283,1,1
0000984301,7,0.3596,0.5471,-0.2864,0.6995,-608,456,599,-2099,403,267,34,34,-46,358.2464,76.2675,53.0310,1,1
0000984322,7,0.3598,0.5480,-0.2872,0.6984,-612,457,596,-2103,367,187,26,32,-38,358.3259,76.4397,53.1928,1,1
0000984343,7,0.3601,0.5485,-0.2883,0.6974,-614,454,594,-2071,343,175,49,14,-37,358.2420,76.5723,53.2321,1,1
0000984364,7,0.3608,0.5484,-0.2898,0.6965,-614,454,593,-1995,323,151,66,-10,-27,358.0254,76.6595,53.2064,1,1
0000984385,7,0.3617,0.5476,-0.2920,0.6957,-612,458,594,-2031,319,151,77,-25,-30,357.4951,76.7043,52.9625,1,1
0000984406,7,0.3628,0.5470,-0.2940,0.6948,-612,458,594,-2043,327,199,94,0,-38,357.0834,76.7695,52.8326,1,1
0000984427,7,0.3640,0.5472,-0.2959,0.6932,-614,457,591,-2067,375,223,86,34,-42,357.0006,76.9169,53.0305,1,1
0000984448,7,0.3653,0.5477,-0.2974,0.6915,-614,462,586,-2075,367,227,80,40,-39,357.1103,77.0902,53.3860,1,1
0000984469,7,0.3666,0.5480,-0.2990,0.6898,-617,464,584,-2059,307,239,86,31,-35,357.2120,77.2458,53.7419,1,1
0000984490,7,0.3681,0.5484,-0.3010,0.6878,-617,464,584,-2047,335,215,84,33,-39,357.2785,77.4364,54.1316,1,1
0000984511,7,0.3695,0.5487,-0.3028,0.6861,-618,468,582,-2063,363,199,101,33,-43,357.3168,77.6000,54.4527,1,1
0000984532,7,0.3713,0.5488,-0.3052,0.6840,-619,471,577,-2051,375,175,133,38,-53,357.3242,77.7871,54.8313,1,1
0000984553,7,0.3737,0.5492,-0.3079,0.6812,-624,477,572,-2047,419,147,163,65,-61,357.4816,78.0296,55.4531,1,1
0000984574,7,0.3767,0.5499,-0.3108,0.6776,-624,477,572,-2071,415,159,193,103,-65,358.0349,78.3326,56.5423,1,1
0000984595,7,0.3812,0.5512,-0.3147,0.6721,-626,480,562,-2075,431,155,215,127,-79,359.1814,78.8023,58.4486,1,1
0000984616,7,0.3851,0.5527,-0.3182,0.6670,-632,488,551,-2103,487,131,230,147,-91,0.4103,79.2516,60.3459,1,1
0000984637,7,0.3892,0.5546,-0.3216,0.6614,-642,492,539,-2131,531,87,233,171,-101,2.0294,79.7445,62.6462,1,1
0000984658,7,0.3935,0.5571,-0.3249,0.6551,-642,492,539,-2219,631,19,240,224,-108,4.3196,80.2978,65.6211,1,1
0000984679,7,0.3983,0.5604,-0.3278,0.6480,-652,491,521,-2255,679,-31,252,262,-107,7.8014,80.8796,69.8050,1,1
0000984700,7,0.4053,0.5650,-0.3312,0.6378,-666,498,501,-2207,627,-59,282,300,-105,14.0342,81.5721,76.9946,1,1
0000984721,7,0.4110,0.5687,-0.3341,0.6293,-681,499,479,-2111,423,-139,275,285,-119,19.8600,82.0630,83.6209,1,1
0000984742,7,0.4153,0.5727,-0.3368,0.6213,-681,499,479,-1955,199,-299,195,281,-139,26.0312,82.5109,90.4459,1,0
0000984763,7,0.4182,0.5785,-0.3372,0.6138,-693,492,458,-1771,27,-299,59,356,-117,34.0574,82.8389,98.7679,1,0
0000984784,7,0.4202,0.5849,-0.3358,0.6071,-706,484,437,-1627,-59,-159,57,315,-89,42.8927,82.9311,107.6596,1,0
0000984805,7,0.4240,0.5892,-0.3361,0.6001,-711,485,422,-1539,19,203,193,173,-30,50.3985,82.8202,115.5651,1,0
0000984826,7,0.4293,0.5870,-0.3402,0.5962,-704,506,417,-1651,307,731,356,-49,41,51.0334,82.7357,117.1066,1,0
0000984847,7,0.4353,0.5805,-0.3462,0.5947,-704,506,417,-1795,379,739,383,-128,86,47.3217,82.6884,114.5693,1,0
0000984868,7,0.4404,0.5744,-0.3518,0.5936,-696,528,418,-1799,123,655,281,-164,35,43.6004,82.6484,111.9027,1,0
0000984889,7,0.4422,0.5676,-0.3591,0.5945,-688,534,423,-1903,-151,695,162,-229,-31,37.4957,82.9107,106.6746,1,0
0000984910,7,0.4393,0.5641,-0.3639,0.5970,-679,519,437,-1759,-115,1003,-15,-259,-102,31.7814,83.3334,101.1267,1,0
0000984931,7,0.4315,0.5602,-0.3696,0.6028,-679,519,437,-1987,211,1227,-123,-522,-166,20.9093,83.9021,90.0269,1,0
0000984952,7,0.4210,0.5521,-0.3774,0.6128,-664,496,472,-2791,983,223,-102,-671,-92,1.2220,83.9407,70.0765,1,0
0000984973,7,0.4136,0.5466,-0.3803,0.6209,-651,484,494,-2471,859,-727,-270,-128,5,349.8891,83.4047,58.3212,1,0
0000984994,7,0.4059,0.5499,-0.3753,0.6261,-651,454,505,-2303,783,-23,-313,-97,-39,348.2606,83.3373,55.4503,1,0
0000985015,7,0.3979,0.5453,-0.3773,0.6340,-651,454,505,-2603,659,-207,-115,-547,-17,339.7736,82.6165,46.4113,1,0
0000985036,7,0.3935,0.5373,-0.3816,0.6410,-635,445,532,-2319,423,-423,68,-348,35,333.1981,81.5352,39.8800,1,0
0000985057,7,0.3939,0.5311,-0.3866,0.6430,-626,449,544,-2019,179,7,227,-267,-6,330.1324,80.9044,37.3629,1,0
0000985078,7,0.3924,0.5238,-0.3932,0.6458,-613,447,562,-1831,-115,471,42,-403,-67,325.7624,80.0984,33.5362,1,0
0000985099,7,0.3859,0.5172,-0.3990,0.6514,-613,447,562,-1939,-139,363,-35,-295,-67,320.5232,79.0568,28.3000,1,0
0000985120,7,0.3816,0.5143,-0.4022,0.6543,-605,435,578,-2055,55,391,-30,-210,-73,317.7587,78.5123,25.4597,1,0
0000985141,7,0.3773,0.5128,-0.4040,0.6569,-598,419,588,-2107,267,355,-120,-152,-54,315.7812,78.1041,23.2660,1,0
0000985162,7,0.3731,0.5135,-0.4030,0.6594,-598,401,591,-2055,195,155,-193,-30,-15,314.9179,77.9079,21.9041,1,0
0000985183,7,0.3696,0.5161,-0.4003,0.6610,-604,382,593,-2071,99,171,-176,19,-25,314.8641,77.9750,21.2384,1,0
0000985204,7,0.3651,0.5182,-0.3989,0.6626,-604,382,593,-2039,15,375,-108,-72,-64,313.9166,77.9586,19.7193,1,0
0000985225,7,0.3610,0.5180,-0.4001,0.6643,-601,366,597,-2087,-59,391,-65,-115,-83,312.2596,77.7111,17.8037,1,0
0000985246,7,0.3580,0.5181,-0.4013,0.6651,-601,352,599,-2119,-119,387,-75,-38,-69,310.9004,77.5656,16.2805,1,0
0000985267,7,0.3547,0.5205,-0.4001,0.6657,-607,331,600,-2027,-47,371,-176,40,-41,310.1731,77.6503,15.1153,1,0
0000985288,7,0.3506,0.5247,-0.3966,0.6668,-607,331,600,-2007,-111,543,-309,82,-30,309.9688,77.8780,14.1491,1,0
0000985309,7,0.3434,0.5312,-0.3905,0.6689,-611,304,597,-2027,-91,591,-335,72,-33,309.6576,78.1861,12.5519,1,0
0000985330,7,0.3376,0.5367,-0.3854,0.6704,-619,279,595,-2047,-71,699,-335,110,-32,309.3850,78.4730,11.2233,1,0
0000985351,7,0.3322,0.5421,-0.3801,0.6718,-626,254,594,-1967,39,695,-338,77,-14,309.3146,78.7833,10.1190,1,0
0000985372,7,0.3265,0.5459,-0.3749,0.6744,-626,254,594,-1947,-3,535,-318,9,17,309.4535,78.8584,9.2301,1,0
0000985393,7,0.3209,0.5483,-0.3698,0.6779,-627,228,594,-2023,-11,395,-327,-58,51,309.9171,78.7594,8.7036,1,0
0000985414,7,0.3135,0.5500,-0.3631,0.6836,-625,218,602,-2039,99,379,-319,-87,77,310.8911,78.4348,8.3736,1,0
0000985435,7,0.3083,0.5501,-0.3583,0.6884,-622,204,610,-1991,219,283,-246,-121,83,311.8456,78.0622,8.4191,1,0
0000985456,7,0.3051,0.5486,-0.3554,0.6926,-622,204,610,-2043,211,243,-119,-141,77,312.7272,77.6169,8.7655,1,0
0000985477,7,0.3033,0.5461,-0.3542,0.6959,-614,204,617,-2075,131,235,-37,-146,59,313.3212,77.1516,9.1104,1,0
0000985498,7,0.3026,0.5430,-0.3546,0.6985,-608,208,625,-2035,119,227,47,-150,35,313.6170,76.6795,9.4033,1,0
0000985519,7,0.3031,0.5384,-0.3566,0.7007,-601,217,633,-2023,47,243,122,-138,33,313.7417,76.1186,9.8021,1,0
0000985540,7,0.3052,0.5341,-0.3594,0.7018,-601,217,633,-2051,-79,275,205,-148,33,313.8043,75.6790,10.3423,1,0
0000985561,7,0.3088,0.5286,-0.3634,0.7022,-593,234,638,-2095,-247,411,258,-145,37,313.9027,75.2135,11.1798,1,0
0000985582,7,0.3122,0.5231,-0.3676,0.7027,-584,257,646,-2055,-351,515,244,-186,30,313.8533,74.7180,11.8735,1,0
0000985603,7,0.3148,0.5170,-0.3716,0.7039,-573,275,655,-2083,-351,531,164,-192,38,313.7373,74.1162,12.4288,1,0
0000985624,7,0.3156,0.5114,-0.3742,0.7063,-561,288,660,-2227,-191,367,57,-134,50,313.7552,73.4572,12.8168,1,0
0000985645,7,0.3154,0.5103,-0.3732,0.7077,-561,288,660,-2315,-11,215,-41,12,64,314.2049,73.2766,13.1626,1,0
0000985666,7,0.3163,0.5134,-0.3697,0.7069,-564,293,657,-2283,103,71,-89,229,55,315.2321,73.6744,13.9184,1,0
0000985687,7,0.3174,0.5207,-0.3648,0.7036,-580,289,641,-2235,271,67,-124,396,-24,316.3260,74.6436,14.5826,1,0
0000985708,7,0.3183,0.5303,-0.3603,0.6983,-601,273,618,-2131,195,319,-148,447,-83,317.0470,75.9280,14.8688,1,0
0000985729,7,0.3177,0.5434,-0.3551,0.6911,-601,273,618,-2019,-35,687,-161,398,-117,317.1844,77.6308,14.3607,1,0
0000985750,7,0.3154,0.5522,-0.3514,0.6871,-619,254,602,-1967,-123,1079,-218,302,-91,316.7559,78.6718,13.3174,1,0
0000985771,7,0.3123,0.5597,-0.3461,0.6851,-630,234,591,-1803,443,1055,-299,221,-10,316.9949,79.4629,12.7437,1,0
0000985792,7,0.3075,0.5660,-0.3376,0.6864,-636,221,585,-1779,427,895,-443,175,99,318.7177,79.9307,13.2239,1,0
0000985813,7,0.3004,0.5727,-0.3255,0.6898,-636,221,585,-1663,179,743,-456,86,91,321.5439,80.2813,14.2861,1,0
0000985834,7,0.2932,0.5766,-0.3160,0.6941,-642,197,584,-1607,207,615,-490,8,105,323.4157,80.2896,14.6414,1,0
0000985855,7,0.2863,0.5789,-0.3071,0.6991,-640,186,588,-1647,531,431,-399,-31,112,325.2751,80.1045,15.0851,1,0
0000985876,7,0.2825,0.5795,-0.3016,0.7025,-637,179,591,-1755,639,387,-165,-53,87,326.7177,79.9029,15.7088,1,0
0000985897,7,0.2832,0.5769,-0.3009,0.7046,-637,179,591,-1795,639,407,207,-153,74,327.6034,79.5371,16.6059,1,0
0000985918,7,0.2888,0.5702,-0.3058,0.7056,-633,200,598,-2007,619,475,427,-217,73,327.8484,78.9248,17.8186,1,0
0000985939,7,0.3017,0.5578,-0.3177,0.7050,-621,239,606,-2651,491,411,696,-224,62,327.6668,77.9798,19.9213,1,0
0000985960,7,0.3140,0.5476,-0.3285,0.7026,-611,293,611,-2807,363,143,693,-177,55,327.4481,77.3622,21.8487,1,0
0000985981,7,0.3238,0.5387,-0.3380,0.7005,-605,319,620,-1975,-323,191,510,-200,8,326.8839,76.8094,23.0957,1,0
0000986002,7,0.3269,0.5318,-0.3451,0.7009,-605,319,620,-1847,-591,543,119,-248,-32,325.2504,76.1875,22.4491,1,0
0000986023,7,0.3245,0.5265,-0.3479,0.7046,-591,324,629,-2083,-263,647,-56,-188,25,323.8677,75.4060,21.1597,1,0
0000986044,7,0.3231,0.5249,-0.3471,0.7068,-585,324,635,-2107,55,551,-33,-20,55,323.9312,75.0934,21.0327,1,0
0000986065,7,0.3230,0.5267,-0.3446,0.7067,-594,322,630,-1991,239,451,-90,119,37,324.7425,75.2670,21.5949,1,0
0000986086,7,0.3216,0.5302,-0.3408,0.7066,-594,322,630,-1983,335,467,-189,115,27,325.6386,75.5815,21.9837,1,0
0000986107,7,0.3186,0.5335,-0.3364,0.7076,-597,307,627,-1931,431,419,-199,42,25,326.3283,75.7847,21.9814,1,0
0000986128,7,0.3153,0.5350,-0.3331,0.7095,-598,302,629,-1963,483,403,-102,-50,19,326.6406,75.7439,21.6809,1,0
0000986149,7,0.3146,0.5326,-0.3337,0.7113,-593,306,635,-1983,423,435,90,-141,23,326.3885,75.3974,21.4458,1,0
0000986170,7,0.3170,0.5274,-0.3372,0.7125,-593,306,635,-1943,235,467,246,-183,32,325.9700,74.8698,21.6048,1,0
0000986191,7,0.3209,0.5210,-0.3419,0.7132,-581,324,642,-1951,119,463,263,-194,36,325.5210,74.2829,21.9939,1,0
0000986212,7,0.3233,0.5153,-0.3455,0.7146,-572,345,650,-1947,75,467,160,-186,38,325.0990,73.6973,22.1718,1,0
0000986233,7,0.3230,0.5100,-0.3476,0.7175,-561,347,659,-1927,95,447,-16,-180,29,324.6030,73.0054,21.8996,1,0
0000986254,7,0.3198,0.5070,-0.3475,0.7210,-561,347,659,-1895,139,507,-105,-197,24,324.1015,72.4443,21.1370,1,0
0000986275,7,0.3155,0.5041,-0.3468,0.7253,-548,343,669,-2015,227,691,-129,-196,33,323.6408,71.8267,20.2691,1,0
0000986296,7,0.3126,0.5019,-0.3459,0.7285,-539,340,678,-2083,323,827,-86,-112,37,323.4955,71.3653,19.8073,1,0
0000986317,7,0.3110,0.5008,-0.3449,0.7304,-535,337,681,-2063,343,711,-37,-46,27,323.5594,71.1151,19.6531,1,0
0000986338,7,0.3098,0.5001,-0.3440,0.7318,-535,337,681,-2003,271,515,-31,-40,18,323.6450,70.9281,19.5629,1,0
0000986359,7,0.3090,0.4995,-0.3437,0.7327,-533,332,682,-1983,227,475,-29,-37,7,323.6249,70.8043,19.4506,1,0
0000986380,7,0.3078,0.4991,-0.3434,0.7336,-533,333,686,-1987,231,503,-29,-42,0,323.5190,70.6910,19.2106,1,0
0000986401,7,0.3069,0.4985,-0.3436,0.7343,-530,329,687,-2023,251,535,-13,-42,-8,323.3417,70.5685,18.9759,1,0
0000986422,7,0.3063,0.4981,-0.3441,0.7346,-528,331,687,-2007,203,607,34,-15,-18,323.1208,70.4975,18.7557,1,0
0000986443,7,0.3065,0.4978,-0.3450,0.7343,-528,331,687,-1983,171,647,32,0,-17,322.8888,70.4930,18.6308,1,0
0000986464,7,0.3066,0.4979,-0.3455,0.7340,-532,331,688,-1959,159,663,-1,6,-15,322.7618,70.5247,18.5487,1,0
0000986485,7,0.3058,0.4985,-0.3453,0.7340,-531,324,687,-1943,187,643,-27,6,-13,322.6416,70.5526,18.3323,1,0
0000986506,7,0.3050,0.4990,-0.3449,0.7342,-530,321,687,-1947,223,631,-41,3,-9,322.5606,70.5770,18.1395,1,0
0000986527,7,0.3038,0.4995,-0.3444,0.7346,-530,321,687,-1963,239,627,-32,-3,-3,322.4986,70.5732,17.9212,1,0
0000986548,7,0.3030,0.4996,-0.3440,0.7350,-532,318,687,-1963,215,627,-8,-6,0,322.4564,70.5489,17.7737,1,0
0000986569,7,0.3028,0.4996,-0.3440,0.7351,-530,320,687,-1975,207,627,-6,0,-2,322.4358,70.5413,17.7345,1,0
0000986590,7,0.3023,0.5000,-0.3438,0.7352,-530,317,687,-1983,219,611,-11,8,-7,322.3873,70.5566,17.6147,1,0
0000986611,7,0.3020,0.5004,-0.3438,0.7350,-530,317,687,-1975,219,595,-11,17,-15,322.3159,70.6057,17.5105,1,0
0000986632,7,0.3015,0.5012,-0.3436,0.7348,-534,310,686,-1955,219,599,-8,20,-18,322.2075,70.6731,17.3325,1,0
0000986653,7,0.3013,0.5018,-0.3439,0.7343,-533,314,685,-1955,207,619,0,15,-19,322.0533,70.7599,17.1731,1,0
0000986674,7,0.3009,0.5023,-0.3440,0.7341,-534,311,684,-1939,203,643,2,8,-15,321.9156,70.8043,17.0051,1,0
0000986695,7,0.3005,0.5025,-0.3441,0.7340,-534,311,684,-1927,203,679,0,1,-8,321.8134,70.8198,16.8732,1,0
0000986716,7,0.3003,0.5025,-0.3441,0.7341,-536,311,685,-1915,215,687,-11,-9,0,321.7659,70.8112,16.8159,1,0
0000986737,7,0.2996,0.5024,-0.3438,0.7346,-532,308,685,-1911,231,675,-23,-15,5,321.7405,70.7627,16.7004,1,0
0000986758,7,0.2990,0.5022,-0.3434,0.7352,-532,310,688,-1943,235,647,-23,-17,12,321.7822,70.6915,16.6496,1,0
0000986779,7,0.2983,0.5020,-0.3428,0.7359,-532,307,688,-1955,215,619,-21,-15,14,321.8528,70.6227,16.6093,1,0
0000986800,7,0.2976,0.5019,-0.3422,0.7365,-532,307,688,-1967,195,619,-21,-15,12,321.9239,70.5618,16.5660,1,0
0000986821,7,0.2972,0.5016,-0.3419,0.7370,-529,309,688,-1967,167,655,-16,-22,8,321.9659,70.4963,16.5498,1,0
0000986842,7,0.2964,0.5013,-0.3415,0.7377,-528,308,691,-1971,163,647,-8,-19,4,321.9517,70.4040,16.4409,1,0
0000986863,7,0.2963,0.5010,-0.3416,0.7379,-529,306,691,-1963,179,635,6,-12,2,321.9410,70.3571,16.4323,1,0
0000986884,7,0.2962,0.5007,-0.3416,0.7381,-529,306,691,-1959,191,631,11,-10,5,321.9395,70.3179,16.4188,1,0
0000986905,7,0.2960,0.5005,-0.3415,0.7384,-525,309,691,-1963,195,631,5,-12,6,321.9515,70.2740,16.4126,1,0
0000986926,7,0.2960,0.5002,-0.3415,0.7386,-527,311,692,-1971,175,627,0,-9,6,321.9795,70.2324,16.4430,1,0
0000986947,7,0.2957,0.5000,-0.3413,0.7390,-525,309,692,-1955,187,639,-2,-7,4,321.9960,70.1902,16.4091,1,0
0000986968,7,0.2957,0.4999,-0.3412,0.7391,-525,309,692,-1959,207,631,-1,-4,6,322.0289,70.1695,16.4339,1,0
0000986989,7,0.2954,0.4999,-0.3409,0.7394,-525,309,692,-1963,215,631,0,-3,8,322.0771,70.1481,16.4356,1,0
0000987010,7,0.2952,0.4998,-0.3406,0.7396,-525,310,693,-1951,223,639,-3,-3,7,322.1298,70.1276,16.4382,1,0
0000987031,7,0.2951,0.4997,-0.3404,0.7398,-523,310,692,-1947,227,663,-6,-8,6,322.1764,70.1014,16.4604,1,0
0000987052,7,0.2947,0.4996,-0.3401,0.7402,-523,310,692,-1939,235,659,0,-3,6,322.2110,70.0636,16.4387,1,0
0000987073,7,0.2949,0.4995,-0.3400,0.7402,-522,313,693,-1931,239,663,8,2,7,322.2705,70.0589,16.5100,1,0
0000987094,7,0.2950,0.4995,-0.3398,0.7403,-522,314,694,-1927,239,663,12,3,12,322.3628,70.0527,16.5911,1,0
0000987115,7,0.2952,0.4994,-0.3395,0.7404,-521,314,693,-1951,215,671,8,0,14,322.4777,70.0390,16.6915,1,0
0000987136,7,0.2954,0.4992,-0.3392,0.7406,-521,317,693,-1955,211,659,-1,-1,12,322.5952,70.0219,16.8115,1,0
0000987157,7,0.2954,0.4992,-0.3388,0.7408,-521,317,693,-1963,223,655,7,5,10,322.7130,70.0114,16.8866,1,0
0000987178,7,0.2958,0.4992,-0.3388,0.7406,-522,319,694,-1979,231,635,24,19,7,322.7958,70.0340,17.0057,1,0
0000987199,7,0.2967,0.4995,-0.3389,0.7400,-522,322,691,-1959,239,635,30,32,0,322.8978,70.1148,17.1941,1,0
0000987220,7,0.2975,0.5000,-0.3390,0.7393,-525,324,690,-1963,239,635,21,37,-5,322.9707,70.2258,17.3413,1,0
0000987241,7,0.2980,0.5007,-0.3391,0.7386,-525,324,690,-1963,239,643,10,34,-11,322.9947,70.3403,17.4103,1,0
0000987262,7,0.2985,0.5015,-0.3393,0.7378,-527,323,688,-1963,227,639,13,30,-14,322.9690,70.4748,17.4322,1,0
0000987283,7,0.2979,0.5026,-0.3381,0.7378,-529,325,686,-1963,231,639,30,31,-15,323.1625,70.5777,17.4539,1,0
0000987304,7,0.2988,0.5031,-0.3387,0.7368,-532,328,686,-1943,243,607,40,34,-18,323.1053,70.6929,17.5210,1,0
0000987325,7,0.2986,0.5042,-0.3377,0.7366,-532,328,686,-1947,219,591,36,33,-16,323.2963,70.8111,17.5898,1,0
0000987346,7,0.2992,0.5046,-0.3381,0.7359,-534,323,684,-1955,195,611,23,21,-7,323.2671,70.9058,17.6556,1,0
0000987367,7,0.2998,0.5047,-0.3384,0.7355,-534,331,682,-1975,155,639,11,4,0,323.2758,70.9576,17.7321,1,0
0000987388,7,0.3000,0.5046,-0.3385,0.7354,-535,330,684,-1991,127,571,12,0,4,323.2969,70.9566,17.7855,1,0
0000987409,7,0.3006,0.5045,-0.3386,0.7351,-535,330,684,-1983,127,527,31,12,5,323.3581,70.9727,17.9157,1,0
0000987430,7,0.3017,0.5046,-0.3389,0.7345,-534,334,682,-2019,103,507,47,27,7,323.4775,71.0388,18.1563,1,0
0000987451,7,0.3031,0.5048,-0.3391,0.7337,-535,340,680,-2027,63,483,42,45,9,323.6539,71.1394,18.4724,1,0
0000987472,7,0.3036,0.5063,-0.3371,0.7334,-538,345,678,-2019,51,479,12,53,23,324.2593,71.3148,18.9218,1,0
0000987493,7,0.3033,0.5079,-0.3344,0.7337,-538,345,678,-2047,39,471,-19,54,39,324.9710,71.4534,19.3383,1,0
0000987514,7,0.3037,0.5090,-0.3325,0.7335,-538,347,675,-2087,99,411,-43,67,48,325.5874,71.5820,19.8134,1,0
0000987535,7,0.3031,0.5116,-0.3286,0.7338,-540,352,672,-2111,155,351,-53,111,42,326.5594,71.7993,20.3435,1,0
0000987556,7,0.3036,0.5143,-0.3261,0.7328,-545,353,667,-2135,207,247,-44,161,18,327.3279,72.1299,20.9174,1,0
0000987577,7,0.3036,0.5203,-0.3216,0.7305,-555,352,655,-2123,171,175,-33,228,-17,328.5363,72.8435,21.6516,1,0
0000987598,7,0.3032,0.5274,-0.3176,0.7274,-555,352,655,-2123,107,75,-40,302,-53,329.5543,73.6993,22.1971,1,0
0000987619,7,0.3044,0.5352,-0.3154,0.7221,-569,346,639,-2155,63,59,-44,387,-72,330.3975,74.7821,22.8742,1,0
0000987640,7,0.3039,0.5456,-0.3100,0.7169,-589,342,618,-2095,75,99,-25,429,-74,332.0374,76.0794,23.8986,1,0
0000987661,7,0.3060,0.5544,-0.3075,0.7102,-605,339,595,-2127,151,191,-11,420,-54,333.5634,77.3476,25.3283,1,0
0000987682,7,0.3067,0.5667,-0.3003,0.7033,-605,339,595,-2279,343,155,-15,453,-19,337.1478,78.9037,28.2428,1,0
0000987703,7,0.3083,0.5773,-0.2934,0.6968,-623,346,573,-2327,423,43,1,532,2,341.7928,80.2268,32.3502,1,0
0000987724,7,0.3134,0.5890,-0.2885,0.6868,-647,352,538,-2603,379,-403,11,722,-19,349.0280,81.8174,39.5465,1,0
0000987745,7,0.3161,0.6074,-0.2783,0.6735,-679,345,488,-2299,255,-191,-76,957,-74,4.8621,83.8290,54.6539,1,0
0000987766,7,0.3187,0.6243,-0.2720,0.6593,-679,345,488,-2371,151,-223,-88,703,-180,28.3970,85.2696,77.8140,1,0
0000987787,7,0.3142,0.6442,-0.2626,0.6460,-703,329,453,-2491,83,-279,-101,668,-202,63.8347,85.8200,112.0089,1,0
0000987808,7,0.3103,0.6591,-0.2552,0.6358,-721,319,420,-2403,219,-7,-81,614,-164,89.3929,85.1552,136.5788,1,0
0000987829,7,0.3108,0.6692,-0.2520,0.6262,-731,314,398,-2255,247,199,-34,453,-89,102.6648,84.0960,149.6335,1,0
0000987850,7,0.3093,0.6767,-0.2476,0.6206,-731,314,398,-1819,15,491,-71,276,-71,109.0007,83.2423,155.4607,1,0
0000987871,7,0.3074,0.6821,-0.2446,0.6168,-738,317,389,-1615,459,687,-206,198,-74,113.0848,82.6538,159.1395,1,0
0000987892,7,0.3001,0.6902,-0.2356,0.6149,-741,309,384,-1907,791,563,-232,278,-49,117.0836,81.9616,161.7216,1,0
0000987913,7,0.2906,0.7008,-0.2234,0.6120,-750,303,364,-1747,323,307,-88,405,-65,121.5131,80.9645,164.2705,1,0
0000987934,7,0.2914,0.7076,-0.2215,0.6045,-750,303,364,-1655,-39,227,26,342,-69,124.4868,79.8905,167.1897,1,0
0000987955,7,0.2871,0.7133,-0.2174,0.6012,-760,302,350,-1675,-207,303,10,95,-67,127.1374,79.2890,169.1219,1,0
0000987976,7,0.2824,0.7155,-0.2159,0.6014,-760,295,348,-1683,-127,283,-53,-57,-70,129.0338,79.2838,170.4853,1,0
0000987997,7,0.2788,0.7145,-0.2159,0.6042,-757,288,356,-1715,-47,179,-138,-145,-53,129.7086,79.6975,170.8341,1,0
0000988018,7,0.2716,0.7142,-0.2119,0.6094,-753,279,369,-1839,67,-139,-210,-167,-28,130.2913,80.2186,170.4284,1,0
0000988039,7,0.2663,0.7132,-0.2086,0.6140,-753,279,369,-1843,95,-319,-273,-149,-19,130.1473,80.6938,169.5226,1,0
0000988060,7,0.2556,0.7132,-0.2011,0.6210,-744,270,383,-1875,127,-663,-325,-248,-46,130.5538,81.3157,168.3490,1,0
0000988081,7,0.2459,0.7109,-0.1978,0.6286,-736,253,398,-2035,279,-1143,-250,-211,-128,131.4006,82.2695,168.0521,1,0
0000988102,7,0.2339,0.7127,-0.1948,0.6320,-732,229,405,-1927,239,-1267,-31,-81,-245,136.4923,82.7291,171.8530,1,0
0000988123,7,0.2235,0.7152,-0.1952,0.6328,-732,229,405,-1795,207,-1003,80,-78,-259,143.8122,82.9367,178.3172,1,0
0000988144,7,0.2204,0.7146,-0.2018,0.6325,-722,211,410,-2323,103,-1063,150,-33,-228,149.8462,83.1756,-175.3551,1,0
0000988165,7,0.2188,0.7169,-0.2072,0.6287,-718,211,404,-3343,1335,-1211,345,168,-159,154.9685,82.7890,-169.9007,1,0
0000988186,7,0.2290,0.7151,-0.2149,0.6246,-706,251,412,-1895,355,-39,404,-223,173,152.8254,82.5748,-170.5111,1,0
0000988207,7,0.2279,0.7062,-0.2145,0.6351,-706,251,412,-1351,-539,327,-16,-544,138,151.0608,84.1307,-172.4305,1,0
0000988228,7,0.2172,0.6991,-0.2065,0.6492,-677,271,444,-1859,-591,671,-214,-561,110,150.4804,85.8600,-174.6355,1,0
0000988249,7,0.2131,0.6906,-0.2064,0.6596,-648,287,476,-2091,139,819,-92,-440,-9,150.5497,87.4328,-174.9304,1,0
0000988270,7,0.1994,0.6898,-0.1981,0.6672,-634,271,488,-2207,539,-123,-344,-113,-91,160.2842,88.1660,-167.0627,1,0
0000988291,7,0.1898,0.6882,-0.1930,0.6731,-634,271,488,-2111,-103,-139,-256,-284,-11,176.5053,88.7492,-152.0834,1,0
0000988312,7,0.1808,0.6831,-0.1868,0.6825,-612,265,505,-2099,-227,291,-45,-431,47,248.5677,89.5117,-81.2970,1,0
0000988333,7,0.1756,0.6757,-0.1843,0.6919,-587,278,530,-2075,-347,467,-30,-463,35,317.0951,88.5103,-13.4204,1,0
0000988354,7,0.1721,0.6667,-0.1852,0.7012,-557,282,556,-2043,-111,491,-98,-507,5,324.6716,87.0100,-6.0497,1,0
0000988375,7,0.1653,0.6585,-0.1830,0.7110,-526,276,579,-2087,47,383,-220,-434,10,327.1550,85.5112,-4.3104,1,0
0000988396,7,0.1560,0.6513,-0.1776,0.7211,-526,276,579,-2119,3,191,-264,-317,17,329.1545,84.0819,-3.5255,1,0
0000988417,7,0.1502,0.6476,-0.1741,0.7265,-508,269,595,-2107,-63,123,-243,-214,1,329.8298,83.3140,-3.6102,1,0
0000988438,7,0.1438,0.6458,-0.1694,0.7305,-494,260,604,-2115,-15,95,-187,-129,-3,330.3004,82.8281,-4.0595,1,0
0000988459,7,0.1411,0.6445,-0.1680,0.7325,-483,261,607,-2099,163,187,-30,-76,-11,330.3453,82.5428,-4.3544,1,0
0000988480,7,0.1393,0.6434,-0.1671,0.7340,-483,261,607,-2119,291,315,143,-75,-48,330.3514,82.3175,-4.5679,1,0
0000988501,7,0.1427,0.6404,-0.1741,0.7343,-473,273,611,-2095,287,375,299,-91,-98,328.4969,81.9760,-5.5442,1,0
0000988522,7,0.1453,0.6372,-0.1806,0.7350,-462,295,613,-1983,191,599,430,-144,-123,326.8044,81.5662,-6.4703,1,0
0000988543,7,0.1496,0.6321,-0.1888,0.7365,-446,324,616,-1963,195,683,541,-199,-107,325.5580,80.9520,-6.6707,1,0
0000988564,7,0.1582,0.6252,-0.2010,0.7374,-446,324,616,-1927,3,775,585,-234,-72,324.3388,80.2596,-6.1282,1,0
0000988585,7,0.1634,0.6185,-0.2082,0.7399,-433,362,620,-1983,-371,711,574,-234,-47,324.4611,79.5046,-4.9411,1,0
0000988606,7,0.1740,0.6098,-0.2201,0.7413,-417,400,621,-2047,-527,647,442,-195,8,324.4508,78.6918,-3.0239,1,0
0000988627,7,0.1770,0.6048,-0.2217,0.7441,-404,429,625,-2047,-507,539,303,-180,57,325.7629,78.1303,-1.3046,1,0
0000988648,7,0.1797,0.6001,-0.2220,0.7472,-404,429,625,-2015,-467,419,193,-185,93,327.3723,77.5728,0.5740,1,0
0000988669,7,0.1834,0.5950,-0.2234,0.7499,-392,453,632,-2011,-451,335,132,-181,111,328.6773,77.0075,2.3336,1,0
0000988690,7,0.1859,0.5896,-0.2219,0.7540,-377,476,638,-2067,-423,235,104,-169,132,330.7524,76.3334,4.5156,1,0
0000988711,7,0.1890,0.5852,-0.2211,0.7569,-363,503,645,-2031,-427,187,77,-150,155,332.4160,75.8149,6.4006,1,0
0000988732,7,0.1900,0.5817,-0.2169,0.7606,-347,532,654,-2011,-331,175,51,-162,184,334.5832,75.3035,8.3087,1,0
0000988753,7,0.1912,0.5779,-0.2117,0.7646,-347,532,654,-2071,-163,79,44,-159,221,337.0388,74.7359,10.4522,1,0
0000988774,7,0.1950,0.5736,-0.2083,0.7678,-327,565,660,-2159,-83,19,51,-125,241,339.3549,74.1739,12.8254,1,0
0000988795,7,0.1995,0.5695,-0.2023,0.7714,-308,606,666,-2227,-47,63,96,-96,243,342.5281,73.5862,15.8852,1,0
0000988816,7,0.2036,0.5666,-0.1975,0.7736,-290,651,669,-2491,151,275,120,-58,232,345.0135,73.1523,18.3416,1,0
0000988837,7,0.2092,0.5647,-0.1952,0.7741,-290,651,669,-2527,351,387,86,25,199,347.0301,72.9332,20.6433,1,0
0000988858,7,0.2122,0.5663,-0.1901,0.7734,-274,686,668,-2483,287,367,-9,161,158,349.3813,73.0554,22.8048,1,0
0000988879,7,0.2137,0.5711,-0.1847,0.7707,-277,711,666,-2407,79,111,-124,345,101,351.7449,73.5972,24.8180,1,0
0000988900,7,0.2136,0.5831,-0.1755,0.7639,-293,724,656,-2423,35,-243,-148,535,71,355.7613,74.9818,27.9836,1,0
0000988921,7,0.2138,0.5975,-0.1674,0.7545,-293,724,656,-2291,247,-383,-215,773,54,0.7152,76.6973,32.2028,1,0
0000988942,7,0.2127,0.6154,-0.1570,0.7425,-324,730,635,-2187,451,-283,-190,820,28,8.4104,78.7362,38.8727,1,0
0000988963,7,0.2091,0.6327,-0.1459,0.7312,-356,745,615,-2383,295,-323,-182,788,-33,18.0507,80.5048,47.2297,1,0
0000988984,7,0.2073,0.6500,-0.1407,0.7175,-391,745,591,-2459,203,-19,-182,813,-173,30.3449,82.3068,58.9032,1,0
0000989005,7,0.2014,0.6700,-0.1357,0.7015,-391,745,591,-2471,263,571,-21,640,-230,50.6195,84.0966,78.2397,1,0
0000989026,7,0.2012,0.6806,-0.1396,0.6905,-419,751,571,-2351,423,775,202,469,-251,66.9740,84.9472,94.8911,1,0
0000989047,7,0.2019,0.6889,-0.1458,0.6807,-443,769,555,-2055,631,843,310,410,-276,84.0956,85.4075,112.5820,1,0
0000989068,7,0.2014,0.6976,-0.1514,0.6708,-471,776,535,-2055,655,819,217,471,-295,103.7187,85.4013,132.6359,1,0
0000989089,7,0.1998,0.7077,-0.1557,0.6596,-503,770,520,-2007,447,771,2,491,-280,122.8924,84.7082,152.0425,1,0
0000989110,7,0.1932,0.7197,-0.1557,0.6485,-503,770,520,-1775,195,487,-59,404,-253,137.9198,83.4730,166.5295,1,0
0000989131,7,0.1892,0.7267,-0.1571,0.6414,-532,759,512,-1603,195,383,-32,272,-228,145.1989,82.6131,173.6108,1,0
0000989152,7,0.1842,0.7311,-0.1587,0.6375,-550,752,509,-1571,359,367,17,131,-226,150.6730,82.1321,178.8064,1,1
0000989173,7,0.1793,0.7335,-0.1617,0.6354,-561,745,511,-1591,387,271,80,27,-222,155.8595,81.9205,-176.1673,1,1
0000989194,7,0.1771,0.7333,-0.1680,0.6346,-561,745,511,-1571,187,275,168,-98,-207,160.5596,81.9641,-171.1225,1,1
0000989215,7,0.1731,0.7305,-0.1754,0.6369,-564,748,516,-1575,-15,295,144,-214,-183,167.1368,82.4118,-164.2672,1,1
0000989236,7,0.1677,0.7268,-0.1790,0.6416,-556,741,527,-1659,-83,335,-5,-297,-153,173.3320,83.0280,-158.2311,1,1
0000989257,7,0.1613,0.7221,-0.1800,0.6481,-543,729,550,-1891,11,291,-216,-354,-101,180.1608,83.8120,-151.8625,1,1
0000989278,7,0.1507,0.7176,-0.1753,0.6569,-543,729,550,-2019,-83,95,-366,-402,-72,188.6955,84.6896,-144.6164,1,1
0000989299,7,0.1398,0.7129,-0.1697,0.6659,-525,703,579,-2331,-291,-467,-514,-355,-70,199.8600,85.4854,-134.8383,1,1
0000989320,7,0.1225,0.7102,-0.1578,0.6750,-509,670,603,-2451,-335,-787,-578,-208,-67,213.6422,85.9591,-123.4788,1,1
0000989341,7,0.1116,0.7104,-0.1493,0.6787,-502,645,618,-2199,-183,-1103,-459,-69,-40,219.2899,86.0054,-119.4339,1,1
0000989362,7,0.1041,0.7109,-0.1420,0.6809,-502,645,618,-1891,91,-967,-206,-92,21,221.6761,86.0851,-118.2649,1,1
0000989383,7,0.1018,0.7083,-0.1393,0.6845,-489,651,629,-2175,63,-903,60,-148,32,227.7688,86.3974,-112.5847,1,1
0000989404,7,0.1038,0.7068,-0.1411,0.6854,-469,677,627,-1963,143,-579,143,27,-11,230.1654,86.5062,-109.8815,1,1
0000989425,7,0.1068,0.7078,-0.1425,0.6836,-453,705,623,-3211,903,-323,26,6,91,225.6868,86.5033,-113.9925,1,1
0000989446,7,0.1094,0.7091,-0.1385,0.6827,-453,705,623,-2831,923,-659,-73,184,171,217.6726,86.8095,-122.1288,1,1
0000989467,7,0.1100,0.7119,-0.1340,0.6805,-441,723,616,-1695,-259,171,-113,31,47,207.5158,86.7983,-132.6049,1,1
0000989488,7,0.1072,0.7089,-0.1321,0.6845,-412,726,624,-1791,-655,687,-107,-328,4,215.9917,87.1761,-124.5173,1,1
0000989509,7,0.1048,0.7024,-0.1320,0.6915,-376,732,638,-1907,-463,607,0,-374,0,238.5905,87.6223,-102.1275,1,1
0000989530,7,0.1036,0.6950,-0.1331,0.6989,-345,741,645,-2243,239,663,-12,-223,14,267.9352,87.5870,-72.7849,1,1
0000989551,7,0.1015,0.6933,-0.1320,0.7012,-345,741,645,-2027,-103,659,-148,-62,-27,275.0160,87.4476,-65.9756,1,1
0000989572,7,0.0951,0.6944,-0.1271,0.7019,-332,727,648,-2123,-191,399,-407,50,-36,274.0629,87.3345,-67.8533,1,1
0000989593,7,0.0849,0.6978,-0.1165,0.7016,-331,689,657,-2155,-7,175,-652,40,48,268.7421,87.4158,-74.8795,1,1
0000989614,7,0.0743,0.6992,-0.1032,0.7036,-315,657,672,-2103,183,139,-617,-70,105,271.4963,87.6307,-74.0834,1,1
0000989635,7,0.0647,0.6976,-0.0886,0.7081,-315,657,672,-2035,215,303,-424,-150,117,287.6268,87.8888,-59.9234,1,1
0000989656,7,0.0598,0.6952,-0.0812,0.7117,-297,635,683,-2175,43,315,-287,-154,60,301.9805,87.8039,-46.5762,1,1
0000989677,7,0.0547,0.6930,-0.0756,0.7148,-285,615,693,-2075,-15,219,-285,-130,19,311.0290,87.5565,-38.3959,1,1
0000989698,7,0.0493,0.6910,-0.0703,0.7177,-274,597,702,-2059,3,207,-274,-135,11,316.9213,87.2511,-33.3698,1,1
0000989719,7,0.0430,0.6888,-0.0641,0.7209,-274,597,702,-2071,-71,163,-262,-95,12,322.3466,86.8859,-28.9580,1,1
0000989740,7,0.0384,0.6878,-0.0594,0.7225,-266,573,709,-2095,-187,99,-237,-59,16,324.8735,86.7099,-27.1955,1,1
0000989761,7,0.0344,0.6876,-0.0547,0.7232,-264,559,714,-2187,-279,-23,-231,0,33,326.7213,86.6779,-26.0503,1,1
0000989782,7,0.0302,0.6883,-0.0491,0.7231,-262,538,717,-2119,-135,135,-283,21,48,328.2457,86.7936,-25.3226,1,1
0000989803,7,0.0251,0.6889,-0.0422,0.7232,-262,538,717,-2087,83,255,-331,8,57,330.7665,86.8921,-23.7811,1,1
0000989824,7,0.0191,0.6896,-0.0338,0.7231,-260,519,722,-2111,147,247,-266,27,57,334.1483,87.0361,-21.5639,1,1
0000989845,7,0.0163,0.6906,-0.0293,0.7225,-262,502,724,-2083,31,319,-142,48,37,336.0699,87.2123,-20.2309,1,1
0000989866,7,0.0153,0.6912,-0.0278,0.7220,-264,499,724,-2043,95,351,-26,12,-5,336.1151,87.3029,-20.3879,1,1
0000989887,7,0.0154,0.6912,-0.0288,0.7219,-269,497,723,-2055,107,315,62,8,-31,334.6410,87.2879,-21.7697,1,0
0000989908,7,0.0169,0.6914,-0.0317,0.7216,-269,497,723,-2091,-23,215,153,12,-42,331.9948,87.2708,-24.0651,1,0
0000989929,7,0.0207,0.6915,-0.0372,0.7211,-278,506,721,-2147,-131,139,176,30,-38,328.5340,87.2580,-26.7769,1,0
0000989950,7,0.0238,0.6919,-0.0415,0.7204,-285,510,717,-2115,-247,191,150,22,-29,325.5475,87.2789,-29.1574,1,0
0000989971,7,0.0258,0.6921,-0.0442,0.7199,-295,515,716,-2115,-295,119,108,25,-20,323.5653,87.2945,-30.7587,1,0
0000989992,7,0.0277,0.6931,-0.0467,0.7188,-295,515,716,-2115,-283,59,63,80,-5,320.5995,87.4134,-33.3671,1,0
0000990013,7,0.0288,0.6952,-0.0473,0.7166,-308,514,713,-2159,-243,15,30,134,8,316.0793,87.7069,-37.7578,1,0
0000990034,7,0.0303,0.6992,-0.0482,0.7127,-324,514,706,-2083,-163,115,18,184,6,303.7457,88.1835,-49.8957,1,0
0000990055,7,0.0320,0.7023,-0.0490,0.7095,-340,517,702,-2043,-7,139,47,151,26,289.8931,88.5035,-63.5435,1,0
0000990076,7,0.0344,0.7046,-0.0499,0.7070,-340,517,702,-2079,91,87,112,131,32,275.1609,88.7337,-78.0027,1,0
0000990097,7,0.0382,0.7069,-0.0524,0.7043,-356,523,696,-2135,43,59,145,144,13,255.8005,88.8267,-96.8484,1,0
0000990118,7,0.0413,0.7096,-0.0551,0.7013,-373,535,689,-2091,55,119,165,147,-4,235.0855,88.6941,-117.1014,1,0
0000990139,7,0.0465,0.7121,-0.0601,0.6979,-390,548,682,-2087,59,155,217,113,-3,219.4974,88.4065,-131.8596,1,0
0000990160,7,0.0515,0.7135,-0.0651,0.6957,-390,548,682,-2027,-107,259,244,91,-10,212.7765,88.1882,-137.7618,1,0
0000990181,7,0.0559,0.7141,-0.0699,0.6943,-405,557,675,-2055,-171,323,236,36,-12,210.2109,88.0292,-139.5841,1,0
0000990202,7,0.0600,0.7139,-0.0742,0.6937,-415,569,672,-2095,-107,355,157,15,9,209.4614,87.9982,-139.6441,1,0
0000990223,7,0.0621,0.7140,-0.0752,0.6933,-430,567,671,-2047,23,335,37,17,41,206.5826,88.0186,-142.2732,1,0
0000990244,7,0.0641,0.7141,-0.0742,0.6932,-442,563,670,-2011,7,355,-5,10,65,200.2554,88.1179,-148.5143,1,0
0000990265,7,0.0662,0.7139,-0.0739,0.6932,-442,563,670,-1991,-51,387,32,14,57,194.5989,88.2091,-154.0261,1,0
0000990286,7,0.0681,0.7140,-0.0739,0.6929,-457,560,667,-2031,0,371,51,8,46,189.6517,88.2318,-158.8210,1,0
0000990307,7,0.0702,0.7137,-0.0739,0.6929,-473,552,666,-2099,155,299,6,12,62,184.2220,88.2881,-164.0753,1,0
0000990328,7,0.0713,0.7142,-0.0718,0.6926,-486,541,662,-1963,107,247,-40,33,96,175.4306,88.2520,-172.9537,1,0
0000990349,7,0.0740,0.7145,-0.0695,0.6922,-486,541,662,-1963,23,311,22,33,95,162.8557,88.1561,174.5081,1,0
0000990370,7,0.0775,0.7143,-0.0695,0.6921,-502,535,657,-1875,-35,419,84,-6,91,154.1365,88.0886,166.0696,1,0
0000990391,7,0.0812,0.7136,-0.0696,0.6924,-514,533,652,-2115,-143,167,102,2,104,145.1003,88.0425,157.3417,1,0
0000990412,7,0.0851,0.7153,-0.0691,0.6902,-534,523,636,-2251,-159,-51,-7,247,96,141.1738,87.5903,153.6967,1,1
0000990433,7,0.0860,0.7209,-0.0654,0.6845,-534,523,636,-2299,-167,-407,-139,373,82,144.2996,86.6124,156.6010,1,1
0000990454,7,0.0834,0.7316,-0.0568,0.6742,-570,492,613,-2387,-3,-599,-266,503,65,149.4357,84.8714,160.8228,1,1
0000990475,7,0.0812,0.7409,-0.0502,0.6649,-607,464,586,-2575,247,-575,-179,484,52,152.4895,83.3465,163.1695,1,1
0000990496,7,0.0821,0.7479,-0.0479,0.6570,-638,453,563,-2355,371,-375,76,343,42,154.0511,82.1236,164.6269,1,1
0000990517,7,0.0870,0.7518,-0.0526,0.6515,-638,453,563,-1943,467,-231,418,163,-62,155.3748,81.4072,166.7418,1,1
0000990538,7,0.0935,0.7537,-0.0631,0.6474,-663,449,543,-2027,479,-267,494,128,-106,157.6353,81.0309,170.3889,1,1
0000990559,7,0.0999,0.7562,-0.0771,0.6421,-685,441,523,-2539,311,-531,394,162,-191,161.5053,80.5608,175.9369,1,1
0000990580,7,0.1000,0.7603,-0.0858,0.6361,-709,400,499,-2715,279,-699,175,282,-264,165.9097,79.8581,-178.9378,1,1
0000990601,7,0.0972,0.7654,-0.0914,0.6296,-709,400,499,-2347,339,-535,80,236,-225,169.8222,78.9683,-174.7797,1,1
0000990622,7,0.0953,0.7679,-0.0947,0.6263,-735,357,481,-1843,239,-615,41,91,-116,171.9625,78.5059,-172.5179,1,1
0000990643,7,0.0955,0.7695,-0.0968,0.6240,-751,328,468,-1615,259,-579,143,119,3,172.6640,78.1896,-171.6220,1,1
0000990664,7,0.1024,0.7717,-0.1006,0.6196,-763,325,450,-1459,375,-639,304,186,130,171.0287,77.6584,-172.3733,1,1
0000990685,7,0.1137,0.7742,-0.1040,0.6139,-773,351,423,-1275,479,-315,425,270,255,167.6333,76.9583,-174.5348,1,1
0000990706,7,0.1289,0.7740,-0.1088,0.6103,-773,351,423,-1651,599,63,546,8,352,163.2669,76.6091,-177.2507,1,1
0000990727,7,0.1450,0.7682,-0.1141,0.6131,-764,395,417,-1827,595,47,478,-242,371,158.0772,77.1603,179.3248,1,1
0000990748,7,0.1614,0.7593,-0.1193,0.6190,-746,429,419,-1891,347,279,388,-289,293,151.8169,78.1050,174.8411,1,1
0000990769,7,0.1712,0.7516,-0.1234,0.6250,-730,448,425,-1931,283,343,317,-352,246,147.2463,79.0220,171.4075,1,1
0000990790,7,0.1799,0.7433,-0.1269,0.6317,-730,448,425,-2075,267,255,289,-352,250,142.0219,79.9735,167.1729,1,1
0000990811,7,0.1889,0.7355,-0.1296,0.6376,-711,463,430,-2035,75,179,289,-312,278,135.7566,80.7133,161.8766,1,1
0000990832,7,0.1984,0.7269,-0.1319,0.6441,-696,483,436,-2027,-27,175,271,-419,314,127.7013,81.3924,154.7918,1,1
0000990853,7,0.2092,0.7135,-0.1343,0.6550,-679,500,450,-2095,-75,231,216,-503,309,113.9103,82.2961,142.0848,1,1
0000990874,7,0.2156,0.7020,-0.1354,0.6651,-679,500,450,-2135,-51,307,137,-537,268,100.3491,82.8435,129.1452,1,1
0000990895,7,0.2199,0.6905,-0.1362,0.6755,-661,508,467,-2139,-47,255,87,-541,232,85.5581,83.1016,114.7841,1,1
0000990916,7,0.2230,0.6793,-0.1369,0.6857,-647,511,487,-2131,-43,155,54,-536,189,70.9599,82.9968,100.4989,1,1
0000990937,7,0.2243,0.6682,-0.1377,0.6958,-634,505,511,-2071,43,51,-4,-557,134,57.4387,82.6298,87.1689,1,1
0000990958,7,0.2234,0.6543,-0.1384,0.7091,-634,505,511,-2131,51,-75,-71,-562,106,42.3527,81.7945,72.0792,1,1
0000990979,7,0.2210,0.6445,-0.1377,0.7189,-621,486,534,-2251,15,-243,-132,-466,80,33.4982,80.9423,62.9801,1,1
0000991000,7,0.2180,0.6365,-0.1370,0.7271,-614,466,554,-2419,-23,-403,-116,-411,43,27.2081,80.1389,56.3931,1,1
0000991021,7,0.2148,0.6298,-0.1371,0.7338,-610,445,569,-2307,-47,-443,-98,-332,-11,22.2841,79.4639,51.2231,1,1
0000991042,7,0.2112,0.6230,-0.1390,0.7402,-599,422,590,-2183,83,-167,-58,-431,-63,17.2301,78.8263,46.0389,1,1
0000991063,7,0.2062,0.6115,-0.1437,0.7503,-599,422,590,-2095,219,47,-26,-507,-89,9.8192,77.6427,38.6359,1,1
0000991084,7,0.2029,0.6025,-0.1479,0.7576,-588,403,613,-2119,143,43,13,-436,-80,5.0684,76.6426,33.9965,1,1
0000991105,7,0.2009,0.5954,-0.1518,0.7629,-580,388,629,-2123,-19,59,30,-328,-70,1.7587,75.8222,30.8678,1,1
0000991126,7,0.1980,0.5903,-0.1547,0.7671,-573,363,639,-2107,83,35,-73,-244,-91,359.2193,75.2134,28.3483,1,1
0000991147,7,0.1919,0.5879,-0.1551,0.7704,-573,363,639,-2111,139,0,-238,-127,-123,357.0610,74.8699,25.7235,1,1
0000991168,7,0.1827,0.5880,-0.1541,0.7728,-576,325,645,-2127,135,-35,-244,-34,-130,354.9146,74.8033,22.7176,1,1
0000991189,7,0.1760,0.5899,-0.1534,0.7730,-584,289,644,-2139,399,11,-209,43,-145,353.4531,75.0063,20.6207,1,1
0000991210,7,0.1708,0.5929,-0.1534,0.7719,-594,261,637,-2087,331,167,-109,88,-150,352.1694,75.3857,18.8991,1,1
0000991231,7,0.1682,0.5960,-0.1569,0.7694,-594,261,637,-2859,39,59,50,136,-218,350.3447,75.8838,17.1276,1,1
0000991252,7,0.1658,0.6024,-0.1600,0.7642,-614,230,623,-3427,803,543,-128,323,-148,348.6475,76.8453,15.4672,1,1
0000991273,7,0.1610,0.6081,-0.1579,0.7612,-628,209,614,-1755,47,51,-157,25,-48,348.0387,77.5678,14.2637,1,1
0000991294,7,0.1566,0.6094,-0.1572,0.7611,-633,185,611,-1295,-947,527,-159,41,-119,346.8814,77.6835,12.6720,1,1
0000991315,7,0.1506,0.6130,-0.1572,0.7595,-633,185,611,-2127,-535,939,-196,151,-168,344.7922,78.0900,10.0710,1,1
0000991336,7,0.1433,0.6195,-0.1552,0.7561,-647,149,600,-2271,-11,423,-398,294,-140,342.7908,78.8756,7.2726,1,1
0000991357,7,0.1336,0.6272,-0.1487,0.7528,-663,104,586,-1999,171,507,-494,242,-55,341.6075,79.7426,4.7286,1,0
0000991378,7,0.1220,0.6337,-0.1375,0.7514,-677,71,576,-2095,359,495,-467,142,14,341.8753,80.3667,3.1043,1,0
0000991399,7,0.1149,0.6381,-0.1310,0.7500,-677,71,576,-2083,475,203,-295,153,-35,341.7820,80.8256,1.8670,1,0
0000991420,7,0.1116,0.6415,-0.1302,0.7477,-689,45,567,-2007,591,11,-1,121,-112,340.1814,81.2589,-0.0729,1,0
0000991462,7,0.1175,0.6434,-0.1444,0.7425,-701,36,557,-2003,331,283,453,39,-179,334.0838,81.6716,-4.5149,1,0
0000991483,7,0.1264,0.6426,-0.1616,0.7382,-707,42,554,-1967,-23,247,593,57,-254,327.9996,81.7403,-8.4447,1,0
0000991504,7,0.1337,0.6419,-0.1767,0.7341,-707,42,554,-2007,-331,347,579,37,-256,322.3038,81.7560,-12.2691,1,0
0000991525,7,0.1396,0.6403,-0.1898,0.7311,-711,39,551,-2011,-591,555,453,-20,-202,317.5969,81.5834,-15.3883,1,0
0000991546,7,0.1432,0.6381,-0.1990,0.7299,-711,42,555,-1975,-459,503,224,-74,-127,314.6385,81.2895,-17.2743,1,0
0000991567,7,0.1442,0.6360,-0.2044,0.7300,-710,34,560,-2003,-239,439,116,-85,-68,313.0543,80.9402,-18.3152,1,0
0000991588,7,0.1448,0.6331,-0.2084,0.7313,-710,34,560,-1959,-91,335,104,-113,-41,312.5500,80.5158,-18.4178,1,0
0000991609,7,0.1459,0.6296,-0.2120,0.7331,-705,34,566,-1979,-15,275,150,-177,-39,312.7314,80.0331,-17.8432,1,0
0000991630,7,0.1478,0.6250,-0.2166,0.7353,-699,37,578,-1995,171,103,222,-188,-35,313.0567,79.4527,-16.9524,1,0
0000991651,7,0.1516,0.6202,-0.2228,0.7367,-695,50,587,-2047,19,-47,335,-137,-65,313.1711,78.9179,-15.9775,1,0
0000991672,7,0.1571,0.6149,-0.2326,0.7370,-695,50,587,-2099,-359,-59,345,-143,-108,312.1730,78.3507,-15.6635,1,0
0000991693,7,0.1600,0.6109,-0.2404,0.7372,-688,57,594,-2195,-819,0,276,-135,-120,310.9503,77.8464,-15.9664,1,0
0000991714,7,0.1614,0.6083,-0.2467,0.7369,-684,59,600,-2151,-1055,151,162,-62,-129,309.5796,77.4711,-16.6645,1,0
0000991735,7,0.1603,0.6082,-0.2500,0.7361,-682,47,599,-2199,-795,131,2,6,-98,307.9446,77.3157,-18.1103,1,0
0000991756,7,0.1587,0.6104,-0.2500,0.7346,-682,47,599,-2031,-583,43,-84,144,-29,306.7645,77.4828,-19.4341,1,0
0000991777,7,0.1573,0.6158,-0.2469,0.7315,-688,39,589,-2059,-319,43,-128,197,33,305.5345,78.1193,-21.0683,1,0
0000991798,7,0.1558,0.6206,-0.2415,0.7296,-697,37,579,-2051,-143,123,-229,169,93,305.4456,78.7480,-21.7639,1,0
0000991819,7,0.1525,0.6248,-0.2339,0.7291,-702,32,569,-2083,83,183,-341,140,98,306.1221,79.2677,-22.0210,1,0
0000991840,7,0.1473,0.6294,-0.2259,0.7288,-702,15,562,-2023,95,395,-360,111,41,306.2801,79.7208,-22.9964,1,0
0000991861,7,0.1411,0.6329,-0.2201,0.7288,-702,15,562,-2023,-27,515,-296,60,-55,305.6698,79.9159,-24.6154,1,0
0000991882,7,0.1337,0.6365,-0.2167,0.7280,-704,-1,557,-2023,-427,723,-188,62,-107,303.3831,79.9809,-27.8114,1,0
0000991903,7,0.1291,0.6383,-0.2159,0.7275,-703,-25,553,-2023,-523,755,-162,20,-75,301.5910,79.9047,-30.0621,1,0
0000991924,7,0.1247,0.6397,-0.2127,0.7280,-700,-30,551,-1971,-347,695,-239,4,14,301.2455,79.8905,-31.0430,1,0
0000991945,7,0.1204,0.6416,-0.2072,0.7287,-700,-30,551,-2035,-103,691,-276,54,54,301.6435,80.0209,-31.4645,1,0
0000991966,7,0.1160,0.6440,-0.2016,0.7288,-703,-45,548,-2035,123,511,-264,40,14,301.6997,80.2315,-32.2474,1,0
0000991987,7,0.1098,0.6461,-0.1962,0.7294,-703,-56,545,-2027,159,487,-238,-7,-17,301.4332,80.2678,-33.4830,1,0
0000992008,7,0.1056,0.6460,-0.1933,0.7309,-700,-67,549,-2075,75,375,-145,-75,-6,301.7974,80.0941,-33.7041,1,0
0000992029,7,0.1037,0.6448,-0.1920,0.7326,-700,-67,549,-2031,-67,435,-52,-84,13,302.7032,79.8954,-33.0630,1,0
0000992050,7,0.1026,0.6432,-0.1911,0.7343,-697,-70,553,-1987,-227,379,-49,-81,26,303.8102,79.6937,-32.1155,1,0
0000992071,7,0.1012,0.6423,-0.1891,0.7359,-695,-69,556,-2055,-439,343,-135,-55,49,304.9150,79.5866,-31.2967,1,0
0000992092,7,0.0979,0.6415,-0.1840,0.7383,-693,-71,560,-2035,-351,275,-198,-79,91,306.8045,79.4913,-30.0982,1,0
0000992113,7,0.0950,0.6404,-0.1780,0.7411,-693,-71,560,-2035,-219,247,-228,-103,141,309.3260,79.4167,-28.3149,1,0
0000992134,7,0.0929,0.6385,-0.1715,0.7445,-690,-69,565,-2031,-79,199,-196,-142,165,312.5963,79.2936,-25.7513,1,0
0000992155,7,0.0917,0.6359,-0.1657,0.7482,-683,-61,574,-2047,-91,183,-146,-148,169,316.0766,79.0892,-22.8605,1,0
0000992176,7,0.0914,0.6334,-0.1607,0.7514,-679,-51,580,-2003,-127,219,-88,-125,155,319.2555,78.8974,-20.1036,1,0
0000992197,7,0.0921,0.6303,-0.1557,0.7550,-673,-35,588,-2007,-151,191,-52,-124,153,322.8502,78.6333,-16.8693,1,0
0000992218,7,0.0931,0.6280,-0.1521,0.7575,-673,-35,588,-2067,-259,179,-40,-97,147,325.4630,78.4469,-14.4700,1,0
0000992239,7,0.0947,0.6262,-0.1490,0.7594,-667,-22,592,-2099,-435,275,-8,-64,142,327.8732,78.3212,-12.1778,1,0
0000992260,7,0.0965,0.6250,-0.1464,0.7607,-664,-5,597,-2067,-411,327,-5,-34,121,329.8539,78.2586,-10.2571,1,0
0000992281,7,0.0982,0.6240,-0.1439,0.7618,-661,7,599,-2051,-211,359,-9,-35,131,331.7452,78.2192,-8.4411,1,0
0000992302,7,0.1009,0.6228,-0.1403,0.7631,-661,7,599,-2127,-107,299,9,-24,157,334.4130,78.1730,-5.8391,1,0
0000992323,7,0.1031,0.6213,-0.1361,0.7647,-657,30,603,-2003,-467,515,-55,-92,214,337.2200,78.0563,-3.1959,1,0
0000992344,7,0.1052,0.6175,-0.1305,0.7685,-648,54,614,-1987,-371,627,-51,-194,258,340.8636,77.5634,0.1665,1,0
0000992365,7,0.1082,0.6142,-0.1256,0.7715,-642,79,619,-2031,11,423,-21,-3,204,344.1049,77.1538,3.2659,1,0
0000992386,7,0.1103,0.6147,-0.1210,0.7716,-642,79,619,-2075,-283,-27,-75,70,158,346.6317,77.2318,5.5763,1,0
0000992407,7,0.1115,0.6163,-0.1165,0.7708,-642,90,617,-2223,-603,-195,-26,55,95,348.7993,77.4441,7.4683,1,0
0000992428,7,0.1125,0.6185,-0.1141,0.7693,-644,106,614,-2231,-295,-351,-17,141,87,350.1300,77.7571,8.6795,1,0
0000992449,7,0.1152,0.6235,-0.1113,0.7652,-654,123,598,-2139,-59,-311,27,348,113,352.3120,78.4982,10.8357,1,0
0000992470,7,0.1196,0.6327,-0.1085,0.7574,-654,123,598,-2163,-75,-259,65,537,113,355.7562,79.8397,14.3945,1,0
0000992491,7,0.1239,0.6436,-0.1052,0.7479,-672,146,571,-2611,-23,-139,-3,620,93,0.8344,81.4027,19.5287,1,0
0000992512,7,0.1260,0.6611,-0.0993,0.7330,-697,158,537,-3543,139,-343,-136,805,23,11.1728,83.7794,29.5315,1,0
0000992533,7,0.1225,0.6813,-0.0925,0.7158,-731,144,482,-3567,163,-663,-329,1094,-117,32.1990,86.2951,49.6929,1,0
0000992554,7,0.1129,0.7048,-0.0845,0.6953,-769,103,423,-3147,131,-979,-512,1172,-251,100.5018,87.5727,116.5493,1,0
0000992575,7,0.1010,0.7277,-0.0764,0.6741,-769,103,423,-2915,407,-707,-387,1073,-262,148.1489,85.2158,162.5715,1,0
0000992596,7,0.0919,0.7505,-0.0732,0.6504,-799,75,374,-2591,639,-467,-92,863,-248,162.6780,81.7428,176.1196,1,0
0000992617,7,0.0879,0.7655,-0.0753,0.6330,-822,55,334,-2507,423,-7,13,857,-292,167.9162,79.1961,-178.7731,1,0
0000992638,7,0.0826,0.7820,-0.0799,0.6126,-849,15,282,-2935,-143,267,10,1009,-420,172.4565,76.2464,-174.2544,1,0
0000992659,7,0.0746,0.8003,-0.0824,0.5892,-849,15,282,-2571,0,-19,-161,1118,-395,175.6870,72.8214,-171.4212,1,0
0000992680,7,0.0669,0.8184,-0.0811,0.5650,-879,-25,218,-1971,211,-83,-179,1038,-259,177.0881,69.3226,-170.6993,1,0
0000992701,7,0.0605,0.8362,-0.0792,0.5393,-902,-48,166,-1695,179,195,-115,812,-192,177.7968,65.7103,-170.5991,1,0
0000992722,7,0.0570,0.8465,-0.0778,0.5236,-921,-67,126,-1391,167,391,-122,666,-127,178.0688,63.5440,-170.6995,1,0
0000992743,7,0.0546,0.8550,-0.0750,0.5103,-921,-67,126,-1215,135,383,-137,571,-51,177.9633,61.7355,-171.1898,1,0
0000992764,7,0.0531,0.8618,-0.0717,0.4994,-936,-73,93,-1215,175,331,-135,427,-20,177.6947,60.2659,-171.8318,1,0
0000992785,7,0.0511,0.8661,-0.0680,0.4926,-944,-75,73,-1139,343,311,-172,228,-25,177.5703,59.3385,-172.4086,1,0
0000992806,7,0.0480,0.8690,-0.0630,0.4884,-951,-74,67,-995,511,223,-178,81,-11,177.5875,58.7477,-173.0660,1,0
0000992827,7,0.0464,0.8690,-0.0591,0.4891,-951,-74,67,-971,575,167,-119,-55,38,177.4672,58.8153,-173.6439,1,0
0000992848,7,0.0470,0.8670,-0.0565,0.4928,-952,-68,73,-1187,519,155,-40,-193,89,177.1049,59.3032,-174.1885,1,0
0000992869,7,0.0490,0.8634,-0.0544,0.4992,-948,-48,91,-1363,483,115,-39,-308,146,176.5104,60.1531,-174.8111,1,0
0000992890,7,0.0522,0.8581,-0.0511,0.5083,-940,-20,119,-1451,451,31,-48,-395,212,175.5103,61.3554,-175.8437,1,0
0000992911,7,0.0582,0.8497,-0.0465,0.5219,-940,-20,119,-1523,435,87,-28,-514,290,173.5964,63.1771,-177.6795,1,0
0000992932,7,0.0641,0.8408,-0.0418,0.5358,-925,18,152,-1619,363,227,-57,-623,341,171.4209,65.0224,-179.7800,1,0
0000992953,7,0.0708,0.8300,-0.0362,0.5521,-904,66,193,-1923,343,235,-55,-722,394,168.4703,67.1582,177.3237,1,0
0000992974,7,0.0789,0.8176,-0.0314,0.5694,-882,115,238,-2099,283,59,8,-799,409,164.6260,69.4122,173.7166,1,0
0000992995,7,0.0871,0.8035,-0.0264,0.5883,-852,165,284,-2255,531,-31,-36,-861,437,159.5712,71.8070,168.8974,1,0
0000993016,7,0.0979,0.7847,-0.0198,0.6118,-852,165,284,-2591,507,-55,30,-864,430,150.8601,74.5826,160.4967,1,0
0000993037,7,0.1074,0.7694,-0.0177,0.6295,-820,207,326,-2679,351,-27,145,-846,374,142.2193,76.5034,152.4417,1,0
0000993058,7,0.1173,0.7529,-0.0177,0.6474,-793,246,369,-2799,131,87,175,-928,358,131.1576,78.2217,142.1702,1,0
0000993079,7,0.1261,0.7337,-0.0178,0.6675,-757,280,425,-2703,155,223,104,-1102,337,115.5555,79.7004,127.2776,1,0
0000993100,7,0.1330,0.7105,-0.0172,0.6908,-757,280,425,-2671,499,39,71,-1216,319,93.5482,80.4716,105.7868,1,0
0000993121,7,0.1415,0.6808,-0.0171,0.7185,-717,309,485,-2835,755,-31,76,-1198,317,66.6757,79.4535,79.6115,1,0
0000993142,7,0.1460,0.6589,-0.0154,0.7378,-678,330,538,-3047,955,-935,-93,-944,254,52.2527,77.6162,65.4370,1,0
0000993163,7,0.1451,0.6455,-0.0108,0.7498,-660,322,560,-3159,751,-1879,-239,-485,143,45.7884,76.1920,58.5436,1,0
0000993184,7,0.1418,0.6404,-0.0087,0.7548,-660,322,560,-2867,383,-1923,-99,-153,-83,43.1829,75.7464,55.4899,1,0
0000993205,7,0.1404,0.6399,-0.0162,0.7553,-662,299,562,-2407,-183,-1251,360,-60,-345,40.6780,76.2310,53.4873,1,0
0000993226,7,0.1438,0.6421,-0.0349,0.7522,-669,288,554,-2131,95,-1155,501,175,-377,37.3591,77.4223,51.9731,1,0
0000993247,7,0.1486,0.6503,-0.0490,0.7434,-684,281,529,-1739,491,-27,502,333,-284,38.8453,78.9407,54.9862,1,0
0000993268,7,0.1568,0.6481,-0.0632,0.7425,-684,281,529,-2323,887,651,653,-364,-135,35.7681,79.2095,53.7443,1,0
0000993289,7,0.1680,0.6384,-0.0791,0.7470,-668,305,544,-2403,539,43,645,-252,-111,29.2076,78.6086,49.4367,1,0
0000993310,7,0.1767,0.6350,-0.0927,0.7463,-661,321,545,-2127,-27,731,521,-81,-213,26.0011,78.6845,48.0784,1,0
0000993331,7,0.1780,0.6317,-0.1087,0.7466,-655,304,549,-1763,-559,975,197,-173,-356,19.3510,79.1060,42.8530,1,0
0000993352,7,0.1725,0.6312,-0.1174,0.7471,-655,304,549,-1759,-383,875,-38,-59,-356,13.5454,79.5901,37.2998,1,0
0000993373,7,0.1632,0.6329,-0.1195,0.7473,-656,263,551,-2027,155,675,-339,23,-225,9.3174,80.0596,32.4741,1,0
0000993394,7,0.1512,0.6369,-0.1135,0.7475,-662,217,547,-2247,519,383,-576,138,-85,8.0025,80.5212,29.6499,1,0
0000993415,7,0.1391,0.6412,-0.1051,0.7473,-669,175,541,-2079,395,307,-497,59,-95,7.7977,80.9583,27.7524,1,0
0000993436,7,0.1257,0.6426,-0.0995,0.7492,-668,134,547,-1935,375,467,-324,-103,-173,4.6312,81.0937,23.0173,1,0
0000993457,7,0.1191,0.6402,-0.1024,0.7519,-668,134,547,-1951,595,443,12,-191,-242,359.4945,80.8385,17.5724,1,0
0000993478,7,0.1184,0.6369,-0.1110,0.7537,-663,111,554,-2047,707,255,281,-149,-232,354.2915,80.5074,13.0272,1,0
0000993499,7,0.1220,0.6341,-0.1218,0.7538,-659,107,558,-1975,-11,323,432,-137,-192,350.1311,80.2942,10.0518,1,0
0000993520,7,0.1290,0.6290,-0.1367,0.7544,-656,113,565,-2099,-515,515,488,-155,-174,345.5912,79.8047,7.3329,1,0
0000993541,7,0.1358,0.6258,-0.1495,0.7534,-656,113,565,-2071,-463,559,528,-51,-194,342.1700,79.5843,5.5484,1,0
0000993562,7,0.1419,0.6248,-0.1614,0.7506,-656,116,564,-2155,-219,327,426,51,-207,338.7408,79.6764,3.6141,1,0
0000993583,7,0.1457,0.6262,-0.1712,0.7466,-663,116,557,-2111,-423,275,313,119,-215,335.0476,80.0138,1.0513,1,0
0000993604,7,0.1476,0.6281,-0.1792,0.7427,-672,105,550,-2007,-375,367,194,90,-212,331.1681,80.3582,-2.0140,1,0
0000993625,7,0.1477,0.6304,-0.1874,0.7387,-672,105,550,-1963,-15,495,145,97,-204,326.1078,80.6443,-6.3880,1,0
0000993646,7,0.1485,0.6321,-0.1940,0.7354,-678,88,543,-1971,51,427,219,85,-186,322.2016,80.8425,-9.6787,1,0
0000993667,7,0.1513,0.6324,-0.2017,0.7325,-683,82,540,-1987,-23,383,308,38,-164,318.7576,80.9097,-12.2344,1,0
0000993688,7,0.1549,0.6310,-0.2104,0.7305,-684,79,542,-2007,-111,311,334,-42,-153,315.8391,80.7577,-14.1216,1,0
0000993709,7,0.1585,0.6283,-0.2188,0.7296,-684,79,542,-2007,-235,327,303,-83,-118,313.6876,80.4373,-15.2504,1,0
0000993730,7,0.1626,0.6246,-0.2277,0.7291,-681,83,547,-2011,-355,327,274,-89,-82,311.9803,80.0115,-15.8525,1,0
0000993751,7,0.1659,0.6219,-0.2335,0.7288,-681,89,551,-2035,-351,299,230,-57,-60,311.1977,79.7416,-15.8510,1,0
0000993772,7,0.1680,0.6201,-0.2376,0.7286,-680,92,555,-2035,-415,279,140,-58,-35,310.6115,79.5445,-15.9126,1,0
0000993793,7,0.1692,0.6185,-0.2396,0.7290,-679,95,557,-2083,-387,223,73,-47,5,310.6175,79.3622,-15.6247,1,0
0000993814,7,0.1699,0.6179,-0.2396,0.7293,-679,95,557,-2087,-411,231,-32,0,33,311.0569,79.3313,-15.1252,1,0
0000993835,7,0.1689,0.6185,-0.2374,0.7297,-679,95,557,-2059,-307,207,-91,19,32,311.5804,79.3994,-14.8774,1,0
0000993856,7,0.1676,0.6197,-0.2349,0.7299,-682,92,555,-2071,-175,215,-106,33,36,311.9902,79.5190,-14.7986,1,0
0000993877,7,0.1667,0.6206,-0.2324,0.7301,-681,95,554,-2035,-163,307,-72,27,53,312.5664,79.6430,-14.5155,1,0
0000993898,7,0.1666,0.6211,-0.2300,0.7305,-681,95,554,-2003,-171,343,-59,11,72,313.5263,79.7439,-13.7686,1,0
0000993919,7,0.1667,0.6213,-0.2270,0.7312,-683,99,553,-2019,-195,307,-82,2,107,315.0045,79.8243,-12.5370,1,0
0000993940,7,0.1669,0.6213,-0.2222,0.7326,-684,109,554,-2095,-215,223,-99,0,138,317.5538,79.9175,-10.3840,1,0
0000993961,7,0.1672,0.6215,-0.2170,0.7340,-681,119,554,-2067,-223,303,-128,14,172,320.3145,80.0196,-8.0311,1,0
0000993982,7,0.1677,0.6217,-0.2113,0.7354,-681,119,554,-2035,-279,359,-124,1,181,323.3925,80.1205,-5.4026,1,0
0000994003,7,0.1677,0.6219,-0.2057,0.7367,-681,131,555,-2063,-423,451,-149,29,164,326.3466,80.1926,-2.9204,1,0
0000994024,7,0.1671,0.6233,-0.1992,0.7375,-682,141,552,-2095,-491,515,-220,52,165,329.2203,80.3727,-0.6507,1,0
0000994045,7,0.1642,0.6249,-0.1894,0.7394,-681,146,552,-2011,-527,575,-315,16,181,333.0831,80.4944,2.1417,1,0
0000994066,7,0.1599,0.6261,-0.1789,0.7419,-681,146,552,-2027,-455,591,-431,7,213,336.7707,80.4746,4.5894,1,0
0000994087,7,0.1541,0.6280,-0.1656,0.7446,-680,144,554,-2059,-331,603,-540,48,273,341.2808,80.4918,7.5038,1,0
0000994108,7,0.1476,0.6306,-0.1492,0.7472,-681,148,554,-1939,-167,715,-626,80,326,347.0753,80.5434,11.3867,1,0
0000994129,7,0.1406,0.6332,-0.1313,0.7497,-681,144,553,-1979,19,671,-658,80,336,353.4781,80.5262,15.7245,1,0
0000994150,7,0.1314,0.6371,-0.1085,0.7517,-688,141,549,-2027,79,559,-672,154,323,1.4889,80.5203,21.0851,1,0
0000994171,7,0.1242,0.6420,-0.0902,0.7512,-688,141,549,-2031,223,355,-637,242,311,8.4997,80.7231,25.9969,1,0
0000994192,7,0.1178,0.6481,-0.0732,0.7488,-700,140,537,-2035,379,215,-573,319,279,16.1204,81.0664,31.6960,1,0
0000994213,7,0.1126,0.6555,-0.0579,0.7445,-714,137,519,-2063,307,139,-439,405,232,24.6175,81.5271,38.5013,1,0
0000994234,7,0.1093,0.6640,-0.0456,0.7383,-737,143,494,-2183,251,3,-309,485,185,34.2960,82.0560,46.9055,1,0
0000994255,7,0.1067,0.6767,-0.0333,0.7277,-737,143,494,-2243,363,-203,-266,565,140,49.4875,82.7580,60.8727,1,0
0000994276,7,0.1047,0.6877,-0.0259,0.7179,-759,142,462,-2291,331,-259,-175,575,62,63.7530,83.1573,74.3667,1,0
0000994297,7,0.1028,0.6983,-0.0228,0.7080,-780,137,432,-2251,491,-43,-65,508,-69,77.9647,83.4739,88.1715,1,0
0000994318,7,0.0996,0.7064,-0.0225,0.7004,-794,121,412,-2391,1123,-323,-115,359,-99,89.5108,83.7305,99.4291,1,0
0000994339,7,0.0959,0.7139,-0.0205,0.6934,-794,121,412,-2555,1147,-591,-111,449,-68,100.4578,83.6706,109.9128,1,0
0000994360,7,0.0925,0.7255,-0.0196,0.6817,-808,103,384,-2559,215,-715,-22,513,-134,116.4852,83.1032,125.5886,1,0
0000994381,7,0.0882,0.7353,-0.0200,0.6717,-824,89,356,-2391,-363,-775,-124,517,-178,128.5932,82.4374,137.3898,1,0
0000994402,7,0.0812,0.7457,-0.0172,0.6611,-839,64,322,-2215,-419,-1107,-277,584,-145,138.8801,81.3997,146.8792,1,0
0000994423,7,0.0738,0.7584,-0.0117,0.6474,-839,64,322,-2219,-59,-943,-310,757,-99,147.2925,79.6800,154.2605,1,0
0000994444,7,0.0665,0.7714,-0.0060,0.6329,-854,44,279,-2431,187,-803,-301,665,-149,153.4465,77.7318,159.3505,1,0
0000994465,7,0.0556,0.7850,-0.0016,0.6170,-868,19,244,-2279,479,-403,-244,597,-249,159.8426,75.6700,164.5154,1,0
0000994486,7,0.0462,0.7944,-0.0013,0.6056,-877,-16,214,-2187,555,-247,-179,534,-299,164.6749,74.2282,168.5669,1,0
0000994507,7,0.0384,0.8033,-0.0030,0.5943,-882,-48,183,-2203,295,-295,-38,552,-280,168.6646,72.7632,172.0591,1,0
0000994528,7,0.0341,0.8123,-0.0089,0.5822,-882,-48,183,-2099,203,-351,165,567,-276,171.9966,71.1639,175.5260,1,0
0000994549,7,0.0297,0.8230,-0.0186,0.5670,-891,-83,154,-1923,375,-275,127,522,-308,175.5192,69.1233,179.4964,1,0
0000994570,7,0.0230,0.8303,-0.0239,0.5563,-895,-123,125,-1867,499,-255,-22,460,-346,178.2485,67.6547,-177.8773,1,0
0000994591,7,0.0155,0.8367,-0.0274,0.5468,-897,-160,103,-1799,639,-219,-34,394,-294,180.5779,66.3238,-175.8661,1,0
0000994612,7,0.0110,0.8419,-0.0307,0.5387,-897,-160,103,-1627,627,-199,44,342,-175,181.9983,65.1875,-174.5441,1,0
0000994633,7,0.0101,0.8463,-0.0336,0.5316,-900,-175,84,-1567,487,-207,104,281,-38,182.4554,64.2089,-173.9069,1,0
0000994654,7,0.0117,0.8505,-0.0365,0.5245,-902,-178,69,-1487,431,-155,84,204,8,182.3328,63.2668,-173.6514,1,0
0000994675,7,0.0135,0.8523,-0.0372,0.5216,-901,-171,63,-1407,495,-99,48,92,56,181.9989,62.8888,-173.7743,1,0
0000994696,7,0.0166,0.8526,-0.0367,0.5210,-901,-171,63,-1395,527,-123,46,-2,143,181.2520,62.8323,-174.3085,1,0
0000994717,7,0.0218,0.8516,-0.0355,0.5225,-904,-157,65,-1479,527,-99,91,-84,213,179.9966,63.0590,-175.2329,1,0
0000994738,7,0.0286,0.8493,-0.0349,0.5260,-901,-125,74,-1551,367,-11,143,-189,251,178.4791,63.5596,-176.2309,1,0
0000994759,7,0.0386,0.8448,-0.0345,0.5325,-898,-90,89,-1551,359,-3,144,-272,295,176.2107,64.4836,-177.7097,1,0
0000994780,7,0.0473,0.8392,-0.0333,0.5407,-898,-90,89,-1603,491,47,123,-386,335,173.9635,65.5949,-179.3490,1,0
0000994801,7,0.0567,0.8322,-0.0315,0.5506,-895,-48,113,-1663,419,51,137,-472,370,171.2313,66.9373,178.5377,1,0
0000994822,7,0.0676,0.8235,-0.0305,0.5624,-886,0,142,-1767,399,111,207,-557,404,167.8680,68.5083,175.9626,1,0
0000994843,7,0.0800,0.8129,-0.0306,0.5761,-878,51,179,-1991,563,287,257,-657,435,163.6553,70.3078,172.7554,1,0
0000994864,7,0.0971,0.7968,-0.0316,0.5955,-878,51,179,-2119,411,179,326,-786,467,156.6903,72.7852,167.2517,1,0
0000994885,7,0.1123,0.7822,-0.0348,0.6118,-867,107,221,-2315,0,55,435,-784,433,149.4994,74.7910,161.5515,1,0
0000994906,7,0.1265,0.7681,-0.0400,0.6264,-851,156,259,-2771,-183,-431,414,-726,334,141.7903,76.5221,155.4047,1,0
0000994927,7,0.1365,0.7556,-0.0444,0.6392,-842,185,292,-2671,75,-459,236,-655,232,134.2802,77.9526,149.0583,1,0
0000994948,7,0.1411,0.7426,-0.0460,0.6531,-831,195,329,-2783,515,-935,36,-707,140,125.6191,79.4017,140.8949,1,0
0000994969,7,0.1440,0.7273,-0.0494,0.6692,-831,195,329,-2803,-43,-1763,168,-642,8,113.6919,80.9943,129.4610,1,0
0000994990,7,0.1449,0.7181,-0.0592,0.6781,-819,188,360,-3083,-147,-2955,269,-401,-252,106.7328,82.3220,123.3666,1,0
0000995011,7,0.1444,0.7176,-0.0717,0.6775,-822,156,359,-3739,1219,-1491,411,9,-324,110.0998,83.2666,127.7032,1,0
0000995032,7,0.1554,0.7115,-0.0938,0.6788,-809,176,389,-2755,799,-1111,1271,-531,-183,107.8229,84.3410,128.1497,1,0
0000995053,7,0.1801,0.6941,-0.1337,0.6840,-809,176,389,-755,-851,-543,1834,-759,-306,89.4927,86.1445,115.1494,1,0
0000995074,7,0.2048,0.6681,-0.1840,0.6913,-786,203,431,-931,-1791,515,1357,-1012,-366,25.8767,87.4782,57.7984,1,0
0000995095,7,0.2116,0.6459,-0.2130,0.7019,-748,218,486,-1807,-1167,927,720,-920,-248,341.0058,85.4538,15.9774,1,0
0000995116,7,0.2057,0.6366,-0.2179,0.7106,-730,183,508,-2327,-667,771,-572,-326,-55,333.1590,83.9250,8.0665,1,0
0000995137,7,0.1824,0.6400,-0.1993,0.7193,-730,183,508,-2291,-127,319,-1294,-112,18,332.2352,83.4296,3.6022,1,0
0000995158,7,0.1603,0.6436,-0.1798,0.7265,-722,121,516,-2175,163,203,-959,-103,39,332.8376,83.0929,0.7129,1,0
0000995179,7,0.1463,0.6432,-0.1676,0.7326,-715,93,524,-2107,271,223,-370,-204,5,333.7092,82.5492,-0.5856,1,0
0000995200,7,0.1389,0.6390,-0.1643,0.7385,-700,76,540,-2075,527,195,-256,-320,-45,333.2530,81.6697,-1.9246,1,0
0000995221,7,0.1324,0.6337,-0.1635,0.7444,-700,76,540,-2115,463,251,-144,-308,-87,332.2072,80.6779,-3.5584,1,0
0000995242,7,0.1284,0.6299,-0.1658,0.7479,-683,60,553,-1999,27,263,38,-135,-162,330.3358,79.9567,-5.5577,1,0
0000995263,7,0.1266,0.6277,-0.1714,0.7487,-677,46,559,-1939,-183,447,159,-120,-192,327.4901,79.5251,-8.0731,1,0
0000995284,7,0.1287,0.6232,-0.1822,0.7495,-666,45,565,-2035,-463,731,311,-143,-163,324.2999,78.8694,-10.1834,1,0
0000995305,7,0.1309,0.6196,-0.1896,0.7503,-666,45,565,-2099,-599,759,207,-124,-113,322.6382,78.3717,-11.0206,1,0
0000995326,7,0.1307,0.6183,-0.1932,0.7506,-659,45,570,-2071,-595,707,16,-13,-79,321.4115,78.1233,-11.9692,1,0
0000995347,7,0.1288,0.6193,-0.1935,0.7500,-660,37,569,-2131,-183,563,-74,49,-42,320.4312,78.1639,-13.0767,1,0
0000995368,7,0.1270,0.6212,-0.1928,0.7489,-663,25,562,-2131,47,495,-71,102,-33,319.6070,78.3457,-14.1205,1,0
0000995389,7,0.1260,0.6249,-0.1924,0.7461,-667,22,555,-2035,307,519,-2,123,-46,318.2167,78.7874,-15.6304,1,0
0000995410,7,0.1267,0.6263,-0.1945,0.7442,-667,22,555,-1943,255,539,116,53,-77,316.8986,78.9632,-16.7209,1,0
0000995431,7,0.1289,0.6257,-0.1995,0.7430,-669,21,555,-1899,-15,627,232,-27,-98,315.4686,78.8839,-17.5440,1,0
0000995452,7,0.1323,0.6234,-0.2061,0.7426,-665,25,557,-1995,-263,587,277,-57,-91,314.3157,78.6231,-17.8529,1,0
0000995473,7,0.1364,0.6206,-0.2132,0.7422,-665,30,560,-2055,-267,543,215,-48,-51,313.3267,78.3287,-17.9014,1,0
0000995494,7,0.1392,0.6191,-0.2167,0.7419,-665,30,560,-2007,-167,491,145,-26,-13,313.0946,78.2082,-17.6013,1,0
0000995515,7,0.1409,0.6177,-0.2186,0.7422,-665,35,563,-1995,-107,387,93,-46,2,313.2129,78.0834,-17.1663,1,0
0000995536,7,0.1423,0.6164,-0.2202,0.7425,-665,42,565,-1983,-223,387,83,-30,-6,313.3510,77.9688,-16.7701,1,0
0000995557,7,0.1434,0.6155,-0.2219,0.7425,-664,45,568,-2007,-243,471,76,-27,-11,313.2432,77.8772,-16.6407,1,0
0000995578,7,0.1444,0.6144,-0.2233,0.7429,-664,45,568,-1991,-191,467,32,-31,6,313.2856,77.7584,-16.3973,1,0
0000995599,7,0.1448,0.6132,-0.2231,0.7438,-664,45,569,-1995,-255,503,1,-62,43,313.8748,77.6391,-15.7926,1,0
0000995620,7,0.1451,0.6118,-0.2219,0.7453,-660,50,573,-2075,-399,483,-17,-51,72,314.9468,77.4967,-14.7836,1,0
0000995641,7,0.1453,0.6112,-0.2196,0.7464,-663,56,575,-1967,-259,631,-69,-17,89,316.1586,77.4829,-13.7521,1,0
0000995662,7,0.1449,0.6104,-0.2162,0.7481,-663,56,575,-1987,-51,631,-81,-81,125,317.7096,77.4123,-12.5182,1,0
0000995683,7,0.1456,0.6077,-0.2123,0.7513,-660,65,581,-2051,31,491,-18,-99,143,320.3326,77.1458,-10.1646,1,0
0000995704,7,0.1474,0.6054,-0.2097,0.7535,-655,78,586,-1991,-47,511,0,-81,141,322.4463,76.9551,-8.1086,1,0
0000995725,7,0.1485,0.6032,-0.2070,0.7558,-654,89,593,-1975,-63,535,-33,-95,132,324.3796,76.7300,-6.3018,1,0
0000995746,7,0.1492,0.6008,-0.2039,0.7584,-649,99,600,-1987,-75,499,-49,-111,141,326.2838,76.4529,-4.5888,1,0
0000995767,7,0.1502,0.5975,-0.2007,0.7617,-649,99,600,-2075,-203,443,-12,-159,179,328.4399,76.0545,-2.6112,1,0
0000995788,7,0.1526,0.5929,-0.1965,0.7659,-641,120,610,-2075,-195,459,0,-132,190,331.3412,75.5036,0.1665,1,0
0000995809,7,0.1551,0.5900,-0.1932,0.7684,-637,140,617,-2063,-87,463,2,-86,184,333.5668,75.1738,2.3266,1,0
0000995830,7,0.1577,0.5882,-0.1898,0.7701,-635,162,619,-2115,-51,483,16,-28,176,335.6286,74.9873,4.3315,1,0
0000995851,7,0.1607,0.5876,-0.1865,0.7708,-635,162,619,-2107,-187,575,1,31,163,337.6193,74.9721,6.2941,1,0
0000995872,7,0.1623,0.5884,-0.1824,0.7709,-636,172,618,-2043,-391,695,-93,70,158,339.5076,75.0823,7.9690,1,0
0000995893,7,0.1624,0.5903,-0.1749,0.7711,-642,184,617,-2003,-423,739,-186,84,184,342.1223,75.2727,9.9545,1,0
0000995914,7,0.1613,0.5928,-0.1663,0.7713,-648,189,612,-2003,-279,747,-264,143,226,344.8875,75.4964,11.8985,1,0
0000995935,7,0.1601,0.5972,-0.1561,0.7703,-648,189,612,-2027,7,599,-284,241,250,348.3351,75.9316,14.3744,1,0
0000995956,7,0.1595,0.6035,-0.1451,0.7677,-660,197,600,-2043,23,479,-283,341,246,352.5062,76.6171,17.5513,1,0
0000995977,7,0.1586,0.6111,-0.1343,0.7638,-679,203,584,-2007,95,235,-297,373,193,357.0098,77.4523,21.0577,1,0
0000995998,7,0.1561,0.6209,-0.1219,0.7585,-697,205,565,-2059,167,-55,-294,356,155,2.5676,78.4883,25.3508,1,0
0000996019,7,0.1536,0.6281,-0.1130,0.7544,-697,205,565,-2139,179,-211,-277,334,120,6.8949,79.2311,28.7265,1,0
0000996040,7,0.1511,0.6358,-0.1051,0.7496,-712,198,549,-2271,131,-319,-252,382,93,11.5263,80.0397,32.4794,1,0
0000996061,7,0.1485,0.6455,-0.0978,0.7428,-732,193,526,-2295,11,-263,-242,521,35,17.4557,81.1008,37.5828,1,0
0000996082,7,0.1445,0.6582,-0.0913,0.7331,-757,176,491,-2319,-55,-227,-283,642,-51,25.7653,82.5512,45.0082,1,0
0000996103,7,0.1344,0.6773,-0.0823,0.7186,-785,136,448,-2431,-91,-103,-482,749,-165,42.7276,84.6088,60.3746,1,0
0000996124,7,0.1209,0.6941,-0.0722,0.7060,-785,136,448,-2627,71,-283,-681,808,-198,68.4406,85.9350,84.1435,1,0
0000996145,7,0.1054,0.7128,-0.0585,0.6910,-812,88,398,-2891,239,-811,-761,986,-129,108.2270,85.8046,121.5489,1,0
0000996166,7,0.0932,0.7350,-0.0444,0.6701,-841,58,327,-2159,287,-543,-482,1114,-68,137.4495,83.4182,148.6424,1,0
0000996187,7,0.0870,0.7512,-0.0359,0.6534,-856,55,295,-2395,611,-687,-156,525,-8,147.4298,81.0494,157.4308,1,0
0000996208,7,0.0867,0.7606,-0.0360,0.6424,-856,55,295,-2419,731,-863,189,384,-106,151.7965,79.5599,161.7954,1,0
0000996229,7,0.0874,0.7667,-0.0454,0.6344,-862,42,277,-2219,467,-95,316,303,-318,156.9803,78.7388,167.8034,1,0
0000996250,7,0.0820,0.7723,-0.0552,0.6275,-866,1,263,-2019,-43,155,56,319,-460,163.8971,78.0388,175.0906,1,0
0000996271,7,0.0714,0.7807,-0.0598,0.6180,-874,-53,236,-1903,-295,19,-221,531,-427,170.5845,76.7524,-178.6979,1,0
0000996292,7,0.0597,0.7904,-0.0593,0.6068,-874,-53,236,-1827,-7,-131,-347,533,-318,175.0020,75.0877,-175.2649,1,0
0000996313,7,0.0467,0.8014,-0.0519,0.5940,-881,-90,203,-1787,103,-143,-429,479,-161,177.3919,73.1270,-174.5179,1,0
0000996334,7,0.0369,0.8088,-0.0435,0.5853,-886,-109,177,-1699,127,-35,-504,377,-131,178.3873,71.8053,-175.0108,1,0
0000996355,7,0.0262,0.8139,-0.0340,0.5794,-891,-128,159,-1739,351,-107,-521,260,-127,179.4307,70.8966,-175.6198,1,0
0000996376,7,0.0167,0.8178,-0.0256,0.5746,-891,-128,159,-1711,635,-91,-385,187,-101,180.3465,70.1816,-176.1774,1,0
0000996397,7,0.0080,0.8207,-0.0186,0.5710,-894,-144,146,-1699,695,-235,-250,111,-97,181.3250,69.6356,-176.4804,1,0
0000996418,7,0.0033,0.8222,-0.0159,0.5689,-894,-156,140,-1655,651,-227,-132,65,-85,182.0506,69.3363,-176.3680,1,0
0000996439,7,0.0008,0.8223,-0.0150,0.5688,-896,-161,142,-1687,587,-235,-56,-35,-35,182.5471,69.3184,-176.1504,1,0
0000996460,7,0.0007,0.8210,-0.0140,0.5708,-895,-152,150,-1807,419,-279,-3,-111,49,182.4364,69.5875,-176.3466,1,0
0000996481,7,0.0032,0.8188,-0.0127,0.5739,-895,-152,150,-1899,251,-247,18,-161,138,181.5727,70.0445,-177.1168,1,0
0000996502,7,0.0080,0.8152,-0.0090,0.5790,-895,-132,162,-1923,255,-227,-30,-190,203,179.5613,70.7727,-179.0397,1,0
0000996523,7,0.0115,0.8120,-0.0046,0.5835,-895,-107,174,-1915,223,-231,-73,-201,215,177.6049,71.3953,178.9279,1,0
0000996544,7,0.0148,0.8085,0.0008,0.5883,-893,-77,186,-1847,347,-143,-103,-231,225,175.3731,72.0322,176.5286,1,0
0000996565,7,0.0180,0.8043,0.0067,0.5940,-893,-77,186,-1871,427,-19,-113,-275,235,172.8436,72.7803,173.7691,1,0
0000996586,7,0.0217,0.7993,0.0122,0.6004,-890,-51,203,-1911,479,115,-48,-333,242,169.9200,73.5965,170.7010,1,0
0000996607,7,0.0283,0.7916,0.0171,0.6101,-887,-20,224,-1927,491,159,36,-394,250,165.5163,74.7983,166.4344,1,0
0000996628,7,0.0350,0.7843,0.0191,0.6191,-881,8,248,-1907,495,87,100,-441,246,161.2288,75.8764,162.5202,1,0
0000996649,7,0.0426,0.7764,0.0198,0.6285,-881,8,248,-1991,507,55,161,-483,244,156.1920,76.9664,158.0469,1,0
0000996670,7,0.0512,0.7675,0.0191,0.6387,-872,38,276,-2107,463,3,231,-509,238,150.0523,78.0796,152.6682,1,0
0000996691,7,0.0606,0.7589,0.0164,0.6481,-865,70,301,-2275,339,-19,312,-476,195,143.3989,79.0531,147.0037,1,0
0000996712,7,0.0727,0.7486,0.0095,0.6589,-856,94,324,-2419,199,-71,408,-457,124,134.9268,80.1334,140.0723,1,0
0000996733,7,0.0826,0.7400,0.0001,0.6675,-856,94,324,-2351,11,-191,521,-492,28,127.8886,81.0777,134.5947,1,0
0000996754,7,0.0910,0.7294,-0.0125,0.6779,-847,104,354,-2183,23,-107,511,-668,-92,119.0909,82.3797,127.4999,1,0
0000996775,7,0.0958,0.7168,-0.0261,0.6902,-833,103,393,-2483,23,-427,429,-685,-206,105.8960,83.9541,115.7986,1,0
0000996796,7,0.0976,0.7062,-0.0398,0.7001,-818,79,422,-2531,119,-631,348,-481,-284,90.5002,85.2879,101.6670,1,0
0000996817,7,0.0963,0.7001,-0.0552,0.7054,-818,79,422,-4111,-631,-3623,191,3,-403,76.4799,86.6435,88.7816,1,0
0000996838,7,0.0836,0.7157,-0.0612,0.6906,-823,30,405,-1835,623,-531,-373,985,-606,132.4647,87.2789,144.2207,1,0
0000996859,7,0.0749,0.7164,-0.0610,0.6909,-831,-18,394,-2579,2315,811,74,-707,27,145.9518,87.6492,156.9809,1,0
0000996880,7,0.0922,0.6990,-0.0758,0.7051,-804,36,441,-1027,387,-139,1275,-698,110,62.9899,88.5814,76.6328,1,0
0000996901,7,0.1175,0.6861,-0.1058,0.7101,-788,79,469,-1595,-959,671,1456,-438,-220,16.7521,87.8327,34.9268,1,0
0000996922,7,0.1402,0.6726,-0.1447,0.7121,-788,79,469,-1999,-623,1459,1097,-342,-363,341.8337,86.7753,5.0857,1,0
0000996943,7,0.1425,0.6676,-0.1613,0.7127,-776,78,483,-2235,-727,471,152,-136,-316,324.9268,86.0396,-10.2522,1,0
0000996964,7,0.1364,0.6659,-0.1640,0.7149,-769,52,492,-2103,-695,111,-150,-198,-131,318.3148,85.4406,-17.1320,1,0
0000996985,7,0.1308,0.6623,-0.1624,0.7196,-761,37,505,-2091,-31,187,-233,-239,5,319.1124,84.6952,-16.9276,1,0
0000997006,7,0.1245,0.6606,-0.1562,0.7237,-761,37,505,-2075,131,-87,-359,-89,55,321.8216,84.2793,-15.2502,1,0
0000997027,7,0.1177,0.6600,-0.1491,0.7268,-755,25,508,-2107,127,-199,-230,-80,11,323.9187,84.0133,-14.2979,1,0
0000997048,7,0.1131,0.6593,-0.1465,0.7287,-750,12,512,-2131,263,-119,-170,-98,-54,323.6564,83.7511,-15.1569,1,0
0000997069,7,0.1088,0.6575,-0.1468,0.7310,-746,-3,520,-2123,367,31,-57,-147,-113,322.2061,83.2911,-16.9365,1,0
0000997090,7,0.1067,0.6547,-0.1508,0.7329,-746,-3,520,-2007,147,287,164,-169,-155,320.1066,82.7213,-18.8696,1,0
0000997111,7,0.1076,0.6509,-0.1581,0.7347,-734,-13,529,-2039,-75,387,301,-169,-156,318.0359,82.0590,-20.2529,1,0
0000997132,7,0.1116,0.6457,-0.1698,0.7361,-724,-6,537,-2075,-379,619,369,-147,-150,315.7093,81.2852,-21.2698,1,0
0000997153,7,0.1155,0.6407,-0.1799,0.7374,-715,-5,550,-2019,-427,687,374,-204,-152,314.2408,80.5770,-21.5606,1,0
0000997174,7,0.1181,0.6358,-0.1890,0.7390,-715,-5,550,-2031,-299,659,275,-176,-163,312.8846,79.8450,-21.9338,1,0
0000997195,7,0.1188,0.6322,-0.1964,0.7400,-706,-7,559,-1999,-227,599,167,-132,-143,311.3251,79.2212,-22.8085,1,0
0000997216,7,0.1187,0.6294,-0.2018,0.7410,-697,-13,566,-1979,-215,547,105,-118,-115,310.1975,78.7052,-23.4787,1,0
0000997237,7,0.1179,0.6263,-0.2068,0.7423,-695,-20,573,-1979,-263,495,90,-101,-95,309.1929,78.1398,-24.1112,1,0
0000997258,7,0.1177,0.6244,-0.2102,0.7430,-695,-20,573,-2047,-339,435,83,-75,-77,308.5596,77.7816,-24.4686,1,0
0000997279,7,0.1174,0.6230,-0.2129,0.7435,-688,-22,576,-2091,-367,295,48,-57,-68,308.0168,77.5134,-24.8118,1,0
0000997300,7,0.1164,0.6222,-0.2146,0.7438,-687,-29,580,-2115,-319,223,10,-37,-55,307.4352,77.3113,-25.3256,1,0
0000997321,7,0.1149,0.6220,-0.2154,0.7440,-686,-33,580,-2079,-135,259,-11,-14,-28,306.9243,77.1590,-25.8871,1,0
0000997342,7,0.1148,0.6217,-0.2160,0.7441,-684,-33,580,-2027,-111,251,33,-13,-13,306.7967,77.1025,-25.9688,1,0
0000997363,7,0.1152,0.6211,-0.2175,0.7441,-684,-33,580,-2023,-327,407,66,-23,-33,306.5468,77.0168,-26.0630,1,0
0000997384,7,0.1161,0.6201,-0.2197,0.7441,-682,-32,583,-2007,-483,507,94,-33,-33,306.2922,76.8825,-26.0520,1,0
0000997405,7,0.1168,0.6192,-0.2215,0.7443,-680,-29,584,-1991,-439,527,49,-29,-12,306.1510,76.7578,-25.9813,1,0
0000997426,7,0.1161,0.6185,-0.2207,0.7452,-677,-29,585,-2019,-395,531,-72,-35,33,306.5766,76.6540,-25.6742,1,0
0000997447,7,0.1144,0.6182,-0.2178,0.7465,-677,-29,585,-2003,-315,551,-144,-44,68,307.4488,76.6207,-25.1948,1,0
0000997468,7,0.1121,0.6176,-0.2134,0.7486,-675,-30,589,-1979,-211,503,-172,-70,107,308.8841,76.5549,-24.3128,1,0
0000997489,7,0.1098,0.6167,-0.2080,0.7513,-672,-28,593,-1967,-163,467,-210,-94,133,310.8148,76.4694,-23.0333,1,0
0000997510,7,0.1070,0.6155,-0.2016,0.7543,-666,-24,597,-2031,-235,423,-236,-84,150,313.0271,76.3544,-21.5824,1,0
0000997531,7,0.1030,0.6150,-0.1929,0.7576,-666,-24,597,-2039,-271,475,-267,-50,147,315.6273,76.3128,-20.0406,1,0
0000997552,7,0.0997,0.6150,-0.1855,0.7599,-665,-29,599,-1995,-223,527,-280,-50,151,317.6491,76.3270,-18.9154,1,0
0000997573,7,0.0958,0.6149,-0.1774,0.7624,-663,-31,602,-1979,-215,563,-315,-61,166,319.8126,76.3030,-17.7488,1,0
0000997594,7,0.0918,0.6145,-0.1686,0.7652,-659,-31,604,-1983,-187,555,-326,-73,189,322.3058,76.2605,-16.3214,1,0
0000997615,7,0.0879,0.6142,-0.1592,0.7679,-659,-31,604,-2047,-135,535,-339,-39,205,324.9694,76.2288,-14.7591,1,0
0000997636,7,0.0832,0.6145,-0.1473,0.7705,-660,-33,606,-2019,-59,555,-315,-25,200,328.2253,76.3006,-12.8782,1,0
0000997657,7,0.0807,0.6147,-0.1389,0.7722,-659,-30,607,-1995,39,527,-248,-13,187,330.7137,76.3603,-11.2947,1,0
0000997678,7,0.0791,0.6149,-0.1317,0.7735,-660,-23,607,-2023,79,495,-188,-6,172,332.9903,76.4352,-9.7403,1,0
0000997699,7,0.0787,0.6151,-0.1260,0.7743,-662,-18,608,-2063,51,511,-127,5,155,335.0830,76.5075,-8.1595,1,0
0000997720,7,0.0789,0.6153,-0.1212,0.7749,-662,-18,608,-1971,-7,603,-85,4,140,336.9446,76.5926,-6.6759,1,0
0000997741,7,0.0803,0.6148,-0.1167,0.7759,-662,-6,608,-1995,-23,675,-22,-17,139,339.2046,76.5892,-4.6631,1,0
0000997762,7,0.0826,0.6138,-0.1136,0.7768,-661,8,612,-2003,-27,683,6,-44,154,341.1765,76.5209,-2.7622,1,0
0000997783,7,0.0858,0.6121,-0.1109,0.7782,-662,30,616,-2023,-3,655,57,-54,175,343.3563,76.3553,-0.5381,1,0
0000997804,7,0.0902,0.6106,-0.1084,0.7793,-662,30,616,-1995,51,715,80,-41,185,345.7014,76.2148,1.9685,1,0
0000997825,7,0.0945,0.6089,-0.1061,0.7804,-659,53,619,-1959,91,731,84,-43,167,347.9194,76.0389,4.3557,1,0
0000997846,7,0.1001,0.6065,-0.1041,0.7818,-659,79,623,-1887,91,723,121,-68,158,350.3334,75.7555,7.0729,1,0
0000997867,7,0.1055,0.6038,-0.1032,0.7833,-656,104,631,-1875,31,723,151,-100,171,352.1794,75.4165,9.2978,1,0
0000997888,7,0.1114,0.6004,-0.1021,0.7853,-656,104,631,-1951,-39,783,151,-119,201,354.1269,74.9492,11.6427,1,0
0000997909,7,0.1171,0.5969,-0.0997,0.7874,-651,134,638,-1971,-19,891,94,-115,233,356.3123,74.4486,14.1169,1,0
0000997930,7,0.1213,0.5936,-0.0954,0.7898,-647,162,646,-1851,-15,795,-42,-92,243,358.6007,73.9049,16.4084,1,0
0000997951,7,0.1230,0.5912,-0.0877,0.7923,-647,174,651,-1899,23,671,-137,-32,216,1.3028,73.3974,18.6252,1,0
0000997972,7,0.1230,0.5910,-0.0814,0.7930,-647,174,651,-2087,59,347,-145,33,175,3.2542,73.2265,20.0531,1,0
0000997993,7,0.1221,0.5927,-0.0755,0.7926,-651,179,649,-2207,167,67,-161,107,134,5.0114,73.3091,21.2503,1,0
0000998014,7,0.1215,0.5963,-0.0704,0.7904,-663,182,643,-2391,307,-247,-66,262,85,6.8561,73.6763,22.6130,1,0
0000998035,7,0.1228,0.6031,-0.0680,0.7852,-683,186,623,-2427,459,-455,47,373,33,8.9235,74.5407,24.5689,1,0
0000998056,7,0.1265,0.6153,-0.0687,0.7750,-709,189,595,-2459,343,-475,133,511,-46,11.9149,76.2020,27.9023,1,0
0000998077,7,0.1278,0.6267,-0.0703,0.7655,-709,189,595,-2471,243,-467,48,570,-125,14.4093,77.8083,30.6068,1,0
0000998098,7,0.1253,0.6404,-0.0708,0.7544,-741,169,560,-2463,-55,-443,-97,672,-184,17.5741,79.7470,33.5822,1,0
0000998119,7,0.1189,0.6567,-0.0696,0.7415,-774,131,513,-2587,-323,-307,-295,837,-286,22.5054,82.0486,37.8636,1,0
0000998140,7,0.1077,0.6755,-0.0666,0.7264,-808,71,459,-2827,-271,-343,-442,891,-326,31.8660,84.6978,46.0382,1,0
0000998161,7,0.0901,0.7005,-0.0588,0.7055,-808,71,459,-3239,79,-1023,-513,1008,-275,74.9029,87.4296,86.9940,1,0
0000998182,7,0.0815,0.7240,-0.0544,0.6828,-842,24,390,-2723,135,-1215,-175,1350,-213,141.1122,86.0058,152.1426,1,0
0000998203,7,0.0815,0.7452,-0.0561,0.6595,-870,8,325,-2331,479,51,206,897,-111,157.9270,82.7553,169.1155,1,0
0000998224,7,0.0847,0.7556,-0.0609,0.6467,-881,7,292,-2363,583,-427,203,581,-139,161.7264,80.9592,173.5796,1,0
0000998245,7,0.0841,0.7658,-0.0669,0.6340,-881,7,292,-2087,91,23,92,531,-375,166.4172,79.2126,178.7270,1,0
0000998266,7,0.0729,0.7776,-0.0733,0.6202,-891,-38,264,-1955,-155,251,-194,538,-472,174.1908,77.2163,-173.8635,1,0
0000998287,7,0.0608,0.7894,-0.0739,0.6064,-898,-90,224,-1999,287,-179,-283,690,-397,178.5677,75.0898,-170.4081,1,0
0000998308,7,0.0500,0.8012,-0.0710,0.5920,-903,-129,183,-1895,551,-119,-359,652,-278,180.7783,72.8966,-169.3004,1,0
0000998329,7,0.0412,0.8114,-0.0664,0.5792,-903,-129,183,-1759,479,-123,-264,541,-161,181.7736,70.9849,-169.3731,1,0
0000998350,7,0.0348,0.8210,-0.0620,0.5664,-910,-153,149,-1691,335,-43,-182,399,-68,182.1032,69.1378,-169.9112,1,0
0000998371,7,0.0320,0.8261,-0.0576,0.5596,-914,-153,127,-1603,495,27,-215,287,14,181.7790,68.1757,-170.8260,1,0
0000998392,7,0.0302,0.8298,-0.0524,0.5548,-917,-148,112,-1511,555,-187,-171,204,43,181.2068,67.4994,-171.9673,1,0
0000998413,7,0.0298,0.8325,-0.0492,0.5511,-917,-148,112,-1535,519,-139,-60,146,41,180.6823,66.9890,-172.7824,1,0
0000998434,7,0.0307,0.8336,-0.0477,0.5495,-920,-143,105,-1523,587,-215,-14,14,80,180.1871,66.7782,-173.3252,1,0
0000998455,7,0.0338,0.8330,-0.0457,0.5503,-918,-131,105,-1603,563,-227,32,-57,144,179.1274,66.9201,-174.2954,1,0
0000998476,7,0.0385,0.8313,-0.0444,0.5527,-919,-107,113,-1667,499,-231,74,-115,200,177.7787,67.2666,-175.3701,1,0
0000998497,7,0.0447,0.8289,-0.0429,0.5560,-919,-72,123,-1719,271,-187,86,-157,253,175.9990,67.7493,-176.7567,1,0
0000998518,7,0.0518,0.8255,-0.0405,0.5606,-919,-72,123,-1671,191,-83,47,-211,308,173.7389,68.3937,-178.6442,1,0
0000998539,7,0.0590,0.8212,-0.0356,0.5664,-916,-30,137,-1679,319,-99,-49,-290,375,170.8487,69.1544,178.6455,1,0
0000998560,7,0.0681,0.8139,-0.0274,0.5763,-913,16,159,-1695,323,3,-59,-384,396,166.3544,70.3735,174.2063,1,0
0000998581,7,0.0754,0.8059,-0.0213,0.5868,-906,63,188,-1747,179,267,-41,-495,384,162.1531,71.6311,170.0934,1,0
0000998602,7,0.0826,0.7964,-0.0153,0.5988,-906,63,188,-1935,147,399,-53,-579,391,157.1777,73.0234,165.2114,1,0
0000998623,7,0.0902,0.7852,-0.0089,0.6126,-895,107,223,-1939,255,419,-58,-642,435,150.7335,74.4906,158.8408,1,0
0000998644,7,0.0990,0.7725,-0.0031,0.6273,-884,161,265,-2011,115,303,56,-768,408,142.3829,75.8683,150.7222,1,0
0000998665,7,0.1097,0.7541,-0.0010,0.6475,-868,199,311,-2207,31,255,117,-814,282,129.9063,77.6423,138.9391,1,0
0000998686,7,0.1155,0.7383,-0.0008,0.6645,-868,199,311,-2915,151,-79,29,-866,217,117.9970,78.9312,127.4780,1,0
0000998707,7,0.1185,0.7234,0.0002,0.6802,-849,221,359,-2627,475,-243,-58,-777,139,105.1674,79.7602,114.8025,1,0
0000998728,7,0.1173,0.7080,0.0023,0.6964,-831,222,408,-2807,639,-675,-227,-835,63,90.8138,80.2509,100.1787,1,0
0000998749,7,0.1111,0.6948,0.0063,0.7106,-815,203,443,-2875,695,-1379,-392,-496,-74,78.0670,80.3878,86.5956,1,0
0000998770,7,0.1000,0.6867,0.0095,0.7200,-815,203,443,-2419,647,-1579,-254,-277,-196,69.4389,80.7097,76.8013,1,0
0000998791,7,0.0951,0.6831,0.0033,0.7241,-808,168,458,-2763,-155,-2343,176,-222,-356,63.6091,81.3576,71.0758,1,0
0000998812,7,0.0892,0.6870,-0.0102,0.7211,-810,120,452,-2951,1559,-2039,78,475,-597,62.6354,83.0283,70.7147,1,0
0000998833,7,0.0814,0.6988,-0.0141,0.7105,-822,85,430,-2787,2659,-187,-10,241,-147,76.2886,84.4667,84.0457,1,0
0000998854,7,0.0927,0.6926,-0.0268,0.7149,-804,127,455,-1323,1231,-15,1226,-472,-92,66.4312,84.3625,76.1372,1,0
0000998875,7,0.1228,0.6802,-0.0675,0.7195,-804,127,455,-1379,-607,967,1700,-480,-339,46.7920,84.4959,62.2790,1,0
0000998896,7,0.1443,0.6676,-0.1062,0.7227,-785,164,483,-1679,-1115,1099,1394,-541,-443,24.4293,84.5697,44.8554,1,0
0000998917,7,0.1501,0.6592,-0.1311,0.7251,-768,149,500,-2019,-583,1075,418,-298,-491,4.5827,84.4450,27.5525,1,0
0000998938,7,0.1407,0.6585,-0.1396,0.7260,-766,92,499,-2431,-91,427,-237,-25,-405,349.4129,84.5253,12.3037,1,0
0000998959,7,0.1291,0.6625,-0.1395,0.7245,-766,92,499,-2015,-39,195,-389,93,-222,339.4561,84.9008,1.3770,1,0
0000998980,7,0.1153,0.6650,-0.1347,0.7255,-771,48,495,-1887,-7,343,-403,-113,-129,332.0871,84.8451,-7.5251,1,0
0000999001,7,0.1068,0.6630,-0.1316,0.7292,-762,18,502,-2083,-27,615,-246,-175,-89,329.8001,84.2650,-10.7685,1,0
0000999022,7,0.1018,0.6609,-0.1315,0.7318,-757,0,507,-2071,143,343,-94,-117,-114,327.7705,83.7664,-13.2183,1,0
0000999043,7,0.0976,0.6604,-0.1334,0.7325,-757,0,507,-2047,191,123,-47,-11,-182,324.2174,83.4689,-16.9536,1,0
0000999064,7,0.0939,0.6605,-0.1369,0.7323,-756,-27,507,-2095,107,-3,32,-40,-197,319.6295,83.2126,-21.5529,1,0
0000999085,7,0.0939,0.6577,-0.1463,0.7330,-750,-37,513,-2091,-143,131,316,-139,-196,315.3315,82.5617,-25.0648,1,0
0000999106,7,0.0970,0.6541,-0.1575,0.7334,-744,-42,521,-2027,-531,367,404,-113,-223,312.2243,81.9119,-26.9848,1,0
0000999127,7,0.1006,0.6516,-0.1692,0.7326,-744,-42,521,-2027,-555,367,395,-41,-225,308.6860,81.3969,-29.2569,1,0
0000999148,7,0.1039,0.6504,-0.1797,0.7307,-741,-47,524,-2047,-451,331,323,17,-188,305.0199,81.0423,-31.7713,1,0
0000999169,7,0.1068,0.6499,-0.1881,0.7286,-740,-50,523,-2079,-355,279,249,31,-140,301.9669,80.8263,-33.8896,1,0
0000999190,7,0.1094,0.6494,-0.1959,0.7266,-741,-54,523,-2043,-279,435,207,0,-113,299.2363,80.5968,-35.7373,1,0
0000999211,7,0.1115,0.6483,-0.2016,0.7257,-741,-53,524,-2011,-91,443,210,-12,-97,297.8073,80.3672,-36.5251,1,0
0000999232,7,0.1142,0.6471,-0.2071,0.7248,-741,-53,524,-2043,0,383,225,-14,-80,296.6925,80.1771,-36.9472,1,0
0000999253,7,0.1169,0.6456,-0.2123,0.7242,-737,-51,526,-2039,-123,311,219,-37,-63,296.0030,79.9707,-36.9661,1,0
0000999274,7,0.1213,0.6427,-0.2190,0.7241,-737,-42,531,-2031,-199,311,259,-67,-47,295.8194,79.6789,-36.2219,1,0
0000999295,7,0.1249,0.6400,-0.2244,0.7242,-734,-33,535,-2059,-291,287,249,-63,-43,295.8441,79.4199,-35.4311,1,0
0000999316,7,0.1283,0.6376,-0.2294,0.7241,-734,-33,535,-2035,-283,327,235,-55,-31,295.8537,79.2029,-34.7148,1,0
0000999337,7,0.1321,0.6351,-0.2342,0.7241,-730,-24,541,-1999,-323,339,246,-60,-29,296.0001,79.0085,-33.8299,1,0
0000999358,7,0.1356,0.6325,-0.2391,0.7242,-730,-17,545,-2003,-391,295,218,-69,-33,296.0861,78.7746,-33.0311,1,0
0000999379,7,0.1392,0.6293,-0.2441,0.7246,-725,-6,550,-2059,-435,287,164,-69,-9,296.4395,78.5012,-31.9524,1,0
0000999400,7,0.1412,0.6272,-0.2462,0.7253,-725,-6,550,-2083,-395,275,106,-67,25,297.0871,78.3339,-30.9467,1,0
0000999421,7,0.1426,0.6256,-0.2467,0.7263,-722,0,555,-2039,-263,371,41,-47,50,298.0027,78.2441,-29.8712,1,0
0000999442,7,0.1436,0.6244,-0.2459,0.7274,-721,9,558,-2003,-167,379,1,-43,68,299.1357,78.2199,-28.7180,1,0
0000999463,7,0.1442,0.6233,-0.2443,0.7287,-718,19,561,-1967,-167,423,-20,-63,87,300.4528,78.1955,-27.4844,1,0
0000999484,7,0.1451,0.6209,-0.2420,0.7314,-718,19,561,-2027,-195,415,-15,-101,107,302.7672,78.0671,-25.2851,1,0
0000999505,7,0.1456,0.6188,-0.2393,0.7339,-712,26,567,-2035,-143,443,-59,-87,136,304.9852,77.9529,-23.2489,1,0
0000999526,7,0.1457,0.6169,-0.2351,0.7368,-710,43,573,-1987,-187,487,-101,-100,169,307.6068,77.8610,-20.9731,1,0
0000999547,7,0.1457,0.6147,-0.2299,0.7403,-703,55,579,-2003,-391,547,-128,-118,193,310.6822,77.7250,-18.3276,1,0
0000999568,7,0.1452,0.6125,-0.2239,0.7441,-703,55,579,-1999,-435,583,-166,-117,208,313.8885,77.5484,-15.6680,1,0
0000999589,7,0.1433,0.6099,-0.2144,0.7494,-699,70,586,-1987,-359,567,-262,-128,238,318.2544,77.2916,-12.2578,1,0
0000999610,7,0.1404,0.6080,-0.2049,0.7541,-692,78,595,-2003,-307,547,-329,-136,260,321.9505,77.0315,-9.5994,1,0
0000999631,7,0.1365,0.6059,-0.1941,0.7594,-683,81,604,-2023,-327,507,-387,-161,278,325.8246,76.6868,-6.9541,1,0
0000999652,7,0.1315,0.6036,-0.1818,0.7650,-674,84,613,-2123,-283,463,-462,-158,296,329.7886,76.2698,-4.4252,1,0
0000999673,7,0.1258,0.6026,-0.1679,0.7700,-674,84,613,-1967,-275,639,-494,-91,320,333.7843,75.9750,-2.0580,1,0
0000999694,7,0.1196,0.6018,-0.1501,0.7753,-670,89,620,-1943,-147,675,-468,-61,338,338.9515,75.6880,1.1142,1,0
0000999715,7,0.1152,0.6019,-0.1354,0.7785,-667,94,623,-1991,-83,595,-480,-5,351,343.1873,75.5634,3.7719,1,0
0000999736,7,0.1106,0.6025,-0.1201,0.7812,-666,99,624,-2015,-23,595,-495,-1,358,347.5057,75.4647,6.4375,1,0
0000999757,7,0.1065,0.6034,-0.1051,0.7833,-666,99,624,-2147,11,587,-451,59,346,351.7773,75.3900,9.1251,1,0
0000999778,7,0.1038,0.6068,-0.0915,0.7827,-673,102,619,-2119,179,415,-338,234,288,355.9866,75.6789,11.9869,1,0
0000999799,7,0.1023,0.6138,-0.0779,0.7789,-684,113,606,-2011,379,211,-241,305,238,1.0411,76.4420,15.7810,1,0
0000999820,7,0.1027,0.6206,-0.0695,0.7742,-703,126,589,-2035,399,107,-139,344,197,5.1480,77.2372,19.2283,1,0
0000999841,7,0.1044,0.6269,-0.0640,0.7694,-703,126,589,-1983,319,131,-32,286,140,8.9675,77.9803,22.7249,1,0
0000999862,7,0.1071,0.6314,-0.0616,0.7655,-716,138,574,-2083,383,71,54,218,89,11.8569,78.5073,25.6336,1,0
0000999883,7,0.1106,0.6364,-0.0604,0.7610,-726,154,561,-2143,403,75,107,329,91,15.0035,79.0990,28.9549,1,0
0000999904,7,0.1166,0.6457,-0.0596,0.7522,-745,172,537,-2199,367,103,160,443,70,20.9526,80.2024,35.3225,1,0
0000999925,7,0.1210,0.6550,-0.0600,0.7435,-745,172,537,-2231,251,71,131,497,8,27.1815,81.2883,41.9300,1,0
0000999946,7,0.1225,0.6651,-0.0604,0.7342,-766,178,507,-2263,159,-15,30,512,-64,34.5243,82.4708,49.4124,1,0
0000999967,7,0.1207,0.6755,-0.0603,0.7249,-784,169,478,-2419,-123,-179,-59,515,-145,43.3256,83.6736,58.0609,1,0
0000999988,7,0.1158,0.6866,-0.0610,0.7151,-804,136,447,-2431,163,-115,-152,531,-262,55.3317,84.9980,69.7118,1,0
0001000009,7,0.1059,0.7001,-0.0602,0.7036,-819,99,418,-2567,431,-139,-271,490,-231,78.7822,86.2815,92.2767,1,0
0001000030,7,0.0975,0.7109,-0.0576,0.6941,-819,99,418,-2651,271,-507,-262,567,-224,106.4552,86.4941,119.0592,1,0
0001000051,7,0.0884,0.7245,-0.0555,0.6813,-838,60,380,-2347,155,-619,-300,739,-289,136.8444,85.5992,148.5381,1,0
0001000072,7,0.0778,0.7379,-0.0524,0.6683,-854,21,343,-2363,347,-551,-342,548,-229,154.6173,83.9957,165.1990,1,0
0001000093,7,0.0691,0.7489,-0.0490,0.6573,-866,-12,303,-2463,683,-931,-234,616,-205,162.8449,82.4000,172.4498,1,0
0001000114,7,0.0633,0.7638,-0.0538,0.6401,-866,-12,303,-2383,703,-579,154,620,-342,170.8366,79.9311,-179.6234,1,0
0001000135,7,0.0595,0.7731,-0.0643,0.6282,-875,-50,272,-2163,451,-143,251,485,-443,176.8494,78.2278,-173.0560,1,0
0001000156,7,0.0554,0.7816,-0.0771,0.6165,-881,-97,244,-1951,295,-171,290,524,-471,182.0715,76.4719,-167.1044,1,0
0001000177,7,0.0521,0.7905,-0.0895,0.6037,-884,-141,214,-1851,179,-271,276,547,-399,185.5169,74.5161,-162.8878,1,0
0001000198,7,0.0494,0.7987,-0.0999,0.5913,-884,-141,214,-1779,-27,-119,177,491,-326,187.5614,72.6368,-160.1795,1,0
0001000219,7,0.0458,0.8076,-0.1079,0.5779,-887,-176,187,-1747,63,-83,69,436,-228,188.7989,70.6298,-158.5390,1,0
0001000240,7,0.0438,0.8139,-0.1108,0.5687,-890,-196,164,-1723,55,-75,16,380,-143,188.9133,69.2896,-158.3235,1,0
0001000261,7,0.0424,0.8187,-0.1119,0.5616,-891,-206,145,-1679,115,-83,-19,279,-71,188.7483,68.2958,-158.4915,1,0
0001000282,7,0.0420,0.8221,-0.1114,0.5567,-891,-206,145,-1651,267,-87,-42,175,13,188.3160,67.6320,-158.9899,1,0
0001000303,7,0.0428,0.8246,-0.1089,0.5535,-894,-202,135,-1527,367,15,-72,84,90,187.4217,67.2439,-160.0206,1,0
0001000324,7,0.0447,0.8252,-0.1050,0.5533,-897,-187,132,-1547,499,-87,-64,19,164,186.2925,67.2874,-161.3114,1,0
0001000345,7,0.0483,0.8246,-0.1011,0.5545,-898,-161,133,-1583,531,-75,-41,-63,212,184.8789,67.5546,-162.7582,1,0
0001000366,7,0.0526,0.8226,-0.0967,0.5579,-900,-130,144,-1679,639,0,-26,-156,256,183.2939,68.1296,-164.3620,1,0
0001000387,7,0.0586,0.8191,-0.0929,0.5630,-900,-130,144,-1747,547,55,52,-238,323,181.3836,68.9487,-166.1084,1,0
0001000408,7,0.0686,0.8129,-0.0889,0.5715,-898,-90,159,-1723,499,115,99,-311,372,178.3059,70.2748,-168.7097,1,0
0001000429,7,0.0781,0.8059,-0.0863,0.5806,-895,-42,181,-1767,383,195,141,-421,404,175.3123,71.6534,-171.1649,1,0
0001000450,7,0.0887,0.7966,-0.0847,0.5919,-890,9,214,-1863,303,319,205,-555,422,171.7850,73.3471,-173.9792,1,0
0001000471,7,0.1005,0.7847,-0.0852,0.6057,-890,9,214,-1963,251,587,306,-669,430,167.5006,75.4041,-177.2899,1,0
0001000492,7,0.1136,0.7702,-0.0877,0.6214,-879,61,257,-2059,403,635,419,-857,436,161.8790,77.7413,178.3365,1,0
0001000513,7,0.1319,0.7479,-0.0947,0.6437,-865,120,310,-2107,283,491,555,-912,403,151.1025,81.0234,169.5977,1,0
0001000534,7,0.1470,0.7292,-0.1041,0.6601,-847,167,361,-2487,-119,119,645,-887,302,137.9531,83.4037,158.4475,1,0
0001000555,7,0.1590,0.7111,-0.1150,0.6751,-847,167,361,-2523,-347,79,496,-892,168,118.1216,85.3953,140.4861,1,0
0001000576,7,0.1617,0.6919,-0.1225,0.6929,-824,190,415,-3127,-483,-599,78,-1000,21,77.0540,86.8195,100.2500,1,0
0001000597,7,0.1544,0.6790,-0.1235,0.7070,-805,168,457,-3287,-411,-1243,-438,-371,-134,36.4612,86.6141,59.1372,1,0
0001000618,7,0.1374,0.6789,-0.1174,0.7116,-809,111,459,-2763,-803,-2511,-518,8,-265,21.1202,86.8918,41.8841,1,0
0001000639,7,0.1249,0.6822,-0.1176,0.7108,-809,111,459,-2975,111,-3719,-212,138,-376,4.4213,87.6097,24.1677,1,0
0001000660,7,0.1192,0.6911,-0.1212,0.7024,-817,56,439,-2595,1507,-983,67,373,-203,340.3085,89.0695,-0.1121,1,0
0001000681,7,0.1315,0.6825,-0.1325,0.7066,-808,86,459,-2139,563,467,1046,-788,195,346.6943,88.0425,8.2139,1,0
0001000702,7,0.1566,0.6597,-0.1582,0.7178,-776,158,504,-1379,-1483,347,1275,-683,-62,345.5651,85.2824,11.3078,1,0
0001000723,7,0.1680,0.6446,-0.1828,0.7231,-776,158,504,-1587,-1631,619,239,-346,-278,334.9802,83.5269,3.7542,1,0
0001000744,7,0.1564,0.6423,-0.1830,0.7277,-756,145,523,-2031,-711,959,-594,-192,-177,328.8134,82.7432,-3.3599,1,0
0001000765,7,0.1389,0.6457,-0.1702,0.7313,-750,93,527,-2191,107,343,-917,49,-1,327.2671,82.6159,-7.4332,1,0
0001000786,7,0.1224,0.6514,-0.1525,0.7331,-751,52,520,-2131,335,131,-910,99,95,328.5746,82.9348,-8.9684,1,0
0001000807,7,0.1081,0.6556,-0.1356,0.7349,-750,22,514,-2187,235,419,-717,39,81,330.9628,83.1976,-9.1574,1,0
0001000828,7,0.0945,0.6582,-0.1228,0.7367,-750,22,514,-1971,-47,783,-413,-29,-64,331.2957,83.2397,-10.9923,1,0
0001000849,7,0.0864,0.6574,-0.1206,0.7388,-748,-5,517,-2027,55,675,-231,-145,-143,328.7739,82.8478,-14.3630,1,0
0001000870,7,0.0804,0.6542,-0.1208,0.7423,-738,-27,527,-2087,195,503,-102,-217,-109,327.1697,82.1369,-16.4263,1,0
0001000891,7,0.0779,0.6497,-0.1228,0.7461,-725,-34,540,-2099,-19,347,53,-234,-67,326.8220,81.3729,-16.8170,1,0
0001000912,7,0.0774,0.6451,-0.1257,0.7497,-725,-34,540,-2051,-167,347,78,-212,-51,326.9699,80.6528,-16.4590,1,0
0001000933,7,0.0772,0.6401,-0.1289,0.7534,-716,-37,553,-2099,-91,451,60,-161,-45,327.0753,79.8986,-16.1041,1,0
0001000954,7,0.0773,0.6376,-0.1312,0.7552,-710,-34,560,-2135,-55,507,78,-93,-46,326.8784,79.5068,-16.0977,1,0
0001000975,7,0.0778,0.6362,-0.1338,0.7558,-706,-36,561,-2075,-59,447,79,-42,-61,326.2646,79.2814,-16.4429,1,0
0001000996,7,0.0777,0.6356,-0.1360,0.7560,-706,-36,561,-2043,159,455,36,-30,-45,325.4647,79.1460,-17.0755,1,0
0001001017,7,0.0778,0.6347,-0.1374,0.7565,-705,-41,564,-2063,299,447,60,-55,-15,325.1406,78.9958,-17.2719,1,0
0001001038,7,0.0797,0.6325,-0.1400,0.7576,-702,-38,568,-1999,235,527,155,-87,-19,325.2808,78.7208,-16.7548,1,0
0001001059,7,0.0831,0.6298,-0.1448,0.7586,-700,-29,574,-2035,155,615,263,-85,-52,325.1079,78.4088,-16.2466,1,0
0001001080,7,0.0879,0.6273,-0.1516,0.7588,-700,-29,574,-2015,215,583,333,-62,-83,324.3430,78.1436,-16.0476,1,0
0001001101,7,0.0934,0.6252,-0.1594,0.7583,-697,-19,579,-2043,191,491,384,-21,-89,323.2675,77.9340,-16.0178,1,0
0001001122,7,0.0999,0.6233,-0.1680,0.7572,-697,-5,580,-2015,-39,499,425,-29,-95,322.0841,77.8034,-15.9552,1,0
0001001143,7,0.1086,0.6199,-0.1799,0.7560,-695,10,584,-2023,-127,463,466,-45,-111,320.5101,77.5303,-15.8011,1,0
0001001164,7,0.1159,0.6174,-0.1902,0.7544,-698,23,587,-2047,-275,483,467,-15,-126,318.9288,77.3435,-15.9153,1,0
0001001185,7,0.1225,0.6155,-0.1999,0.7525,-698,23,587,-1987,-439,459,413,-3,-124,317.2734,77.2228,-16.2028,1,0
0001001206,7,0.1278,0.6136,-0.2084,0.7508,-697,33,588,-1983,-475,403,345,-17,-114,315.6941,77.0770,-16.6207,1,0
0001001227,7,0.1325,0.6120,-0.2163,0.7491,-698,41,589,-2103,-439,359,211,12,-76,314.1900,76.9573,-17.0648,1,0
0001001248,7,0.1346,0.6121,-0.2199,0.7476,-701,42,588,-2047,-415,399,125,37,-53,313.2021,76.9964,-17.5788,1,0
0001001269,7,0.1356,0.6125,-0.2220,0.7464,-701,42,588,-2023,-247,383,67,41,-36,312.4333,77.0665,-18.0783,1,0
0001001290,7,0.1364,0.6132,-0.2231,0.7454,-703,40,586,-1959,-143,487,38,30,-17,311.9374,77.1585,-18.4231,1,0
0001001311,7,0.1373,0.6128,-0.2239,0.7453,-705,42,587,-1955,-47,455,65,-23,20,311.9431,77.1501,-18.2756,1,0
0001001332,7,0.1394,0.6111,-0.2247,0.7461,-704,53,590,-1983,-103,427,77,-64,47,312.7214,77.0332,-17.2460,1,0
0001001353,7,0.1416,0.6087,-0.2253,0.7474,-704,53,590,-2095,-279,387,102,-79,61,313.7531,76.8465,-15.9721,1,0
0001001374,7,0.1440,0.6070,-0.2258,0.7482,-699,66,595,-2095,-339,447,86,-27,57,314.6483,76.7456,-14.8280,1,0
0001001395,7,0.1460,0.6063,-0.2257,0.7484,-701,77,597,-2047,-239,407,44,-4,55,315.3855,76.7650,-13.9225,1,0
0001001416,7,0.1471,0.6061,-0.2245,0.7488,-704,83,597,-2055,-259,291,-32,16,79,316.1927,76.8154,-13.1314,1,0
0001001437,7,0.1478,0.6068,-0.2209,0.7491,-704,83,597,-2115,-355,239,-77,47,104,317.6014,77.0052,-11.9748,1,0
0001001458,7,0.1481,0.6091,-0.2165,0.7485,-703,89,593,-2135,-479,327,-111,137,121,318.8125,77.3891,-11.1202,1,0
0001001479,7,0.1481,0.6124,-0.2113,0.7473,-712,94,586,-2031,-315,487,-144,139,123,320.0766,77.9072,-10.3077,1,0
0001001500,7,0.1477,0.6155,-0.2056,0.7464,-718,99,579,-2015,-203,443,-177,147,135,321.6135,78.3881,-9.3019,1,0
0001001521,7,0.1468,0.6191,-0.1984,0.7455,-725,105,570,-2075,-75,455,-227,153,169,323.6018,78.9211,-8.0050,1,0
0001001542,7,0.1457,0.6237,-0.1882,0.7445,-725,105,570,-2007,-83,551,-233,166,180,326.9179,79.6132,-5.6569,1,0
0001001563,7,0.1449,0.6274,-0.1808,0.7435,-734,113,562,-1991,0,515,-194,165,152,329.4579,80.1409,-3.8068,1,0
0001001584,7,0.1447,0.6313,-0.1743,0.7417,-742,116,551,-1991,47,419,-163,198,140,331.9152,80.7232,-1.9190,1,0
0001001605,7,0.1448,0.6353,-0.1680,0.7398,-749,126,543,-2035,15,227,-166,182,145,334.6528,81.3167,0.2884,1,0
0001001626,7,0.1445,0.6387,-0.1613,0.7383,-749,126,543,-2047,-39,123,-183,156,158,337.9195,81.8098,2.9656,1,0
0001001647,7,0.1443,0.6428,-0.1526,0.7367,-757,133,535,-2099,-95,-31,-190,167,161,342.7682,82.3494,7.0582,1,0
0001001668,7,0.1435,0.6472,-0.1451,0.7344,-764,142,524,-2099,-111,-35,-224,233,150,347.1374,82.9288,10.7372,1,0
0001001689,7,0.1419,0.6529,-0.1371,0.7313,-774,141,508,-2103,-75,-7,-263,281,131,352.1121,83.6369,14.9112,1,0
0001001710,7,0.1396,0.6597,-0.1285,0.7272,-774,141,508,-2127,3,139,-307,339,117,358.3847,84.4535,20.2617,1,0
0001001731,7,0.1362,0.6674,-0.1190,0.7224,-789,139,488,-2323,147,183,-353,373,113,6.9399,85.3246,27.7563,1,0
0001001752,7,0.1305,0.6784,-0.1056,0.7152,-801,135,464,-2387,247,135,-436,451,91,24.4300,86.4010,43.6647,1,0
0001001773,7,0.1238,0.6889,-0.0941,0.7080,-819,118,434,-2395,323,-83,-500,522,35,48.3525,87.1395,66.0897,1,0
0001001794,7,0.1150,0.7009,-0.0824,0.6991,-819,118,434,-2427,375,-371,-548,599,-22,85.1335,87.3509,101.1886,1,0
0001001815,7,0.1056,0.7141,-0.0715,0.6883,-840,94,396,-2199,163,-479,-501,661,-69,119.9661,86.5336,134.3673,1,0
0001001836,7,0.0970,0.7254,-0.0631,0.6785,-855,70,363,-2023,211,-507,-400,469,-83,137.6537,85.3084,150.6635,1,0
0001001857,7,0.0893,0.7347,-0.0564,0.6701,-865,55,340,-2035,367,-707,-205,368,-69,147.0952,84.1266,158.9351,1,0
0001001878,7,0.0869,0.7426,-0.0556,0.6618,-865,55,340,-2283,163,-867,9,436,-114,153.0476,82.9786,164.6321,1,0
0001001899,7,0.0853,0.7500,-0.0600,0.6532,-872,41,316,-2367,-83,-535,133,358,-238,159.4198,81.8808,171.2431,1,0
0001001920,7,0.0820,0.7552,-0.0669,0.6469,-875,16,301,-2271,-35,-263,56,223,-318,165.9705,81.1264,178.0954,1,0
0001001941,7,0.0757,0.7598,-0.0715,0.6418,-878,-20,289,-2091,-39,35,-164,261,-311,171.9947,80.4201,-176.0148,1,0
0001001962,7,0.0631,0.7680,-0.0696,0.6335,-882,-57,265,-1895,-163,39,-392,393,-257,177.3860,79.0662,-171.7950,1,0
0001001983,7,0.0522,0.7763,-0.0636,0.6250,-882,-57,265,-1839,-171,31,-447,441,-175,179.5700,77.6884,-170.9800,1,0
0001002004,7,0.0421,0.7841,-0.0554,0.6168,-886,-82,237,-1847,219,55,-497,388,-122,180.5557,76.3714,-171.4749,1,0
0001002025,7,0.0318,0.7900,-0.0467,0.6105,-891,-104,218,-1931,475,127,-468,253,-131,181.5372,75.3727,-172.0432,1,0
0001002046,7,0.0222,0.7938,-0.0398,0.6064,-892,-127,207,-1907,595,59,-372,171,-145,182.8239,74.7014,-172.1000,1,0
0001002067,7,0.0135,0.7967,-0.0358,0.6032,-892,-127,207,-1779,827,7,-184,89,-131,184.5537,74.1642,-171.4138,1,0
0001002088,7,0.0094,0.7975,-0.0350,0.6022,-891,-146,202,-1739,831,-59,-68,16,-98,185.6520,73.9828,-170.7202,1,0
0001002109,7,0.0078,0.7974,-0.0354,0.6024,-892,-151,204,-1827,735,-55,19,-24,-34,186.2969,73.9915,-170.1686,1,0
0001002130,7,0.0089,0.7965,-0.0361,0.6035,-891,-144,209,-1935,715,-43,54,-73,53,186.1705,74.1594,-170.1511,1,0
0001002151,7,0.0129,0.7943,-0.0354,0.6064,-891,-144,209,-2019,719,-19,77,-121,137,184.8646,74.6235,-171.1826,1,0
0001002172,7,0.0177,0.7919,-0.0349,0.6094,-891,-126,217,-2035,723,-3,104,-143,174,183.2230,75.1022,-172.4808,1,0
0001002193,7,0.0238,0.7890,-0.0343,0.6130,-891,-100,227,-1979,691,59,153,-178,211,181.0477,75.6719,-174.2024,1,0
0001002214,7,0.0314,0.7852,-0.0346,0.6175,-887,-71,240,-1943,675,199,215,-230,235,178.3907,76.3823,-176.2165,1,0
0001002235,7,0.0407,0.7803,-0.0364,0.6230,-887,-71,240,-1927,627,283,303,-283,250,175.2716,77.2212,-178.4367,1,0
0001002256,7,0.0549,0.7723,-0.0416,0.6315,-885,-35,257,-1927,523,371,448,-370,252,170.7014,78.5144,178.5687,1,0
0001002277,7,0.0685,0.7642,-0.0489,0.6395,-883,3,282,-1903,315,447,578,-450,249,166.2997,79.7543,175.8633,1,0
0001002298,7,0.0836,0.7537,-0.0590,0.6492,-872,43,313,-1955,115,495,684,-555,221,160.9472,81.2924,172.5574,1,0
0001002319,7,0.0986,0.7411,-0.0711,0.6603,-863,78,352,-2115,-67,611,687,-636,179,154.2604,83.0749,168.0677,1,0
0001002340,7,0.1114,0.7268,-0.0829,0.6726,-863,78,352,-2183,-183,591,601,-796,119,144.3427,85.0318,160.1550,1,0
0001002361,7,0.1242,0.7050,-0.0982,0.6913,-845,109,401,-2183,-371,311,554,-911,59,108.6888,87.6235,126.7911,1,0
0001002382,7,0.1303,0.6864,-0.1092,0.7070,-819,122,456,-2343,-27,71,359,-923,6,35.9677,87.6086,55.4714,1,0
0001002403,7,0.1314,0.6709,-0.1160,0.7205,-800,121,492,-2927,27,-355,112,-656,-35,7.1379,85.7854,27.3066,1,0
0001002424,7,0.1278,0.6647,-0.1185,0.7265,-800,121,492,-3407,-855,-2407,-127,-182,-147,358.5139,84.9363,18.5983,1,0
0001002445,7,0.1170,0.6727,-0.1176,0.7211,-806,71,482,-3151,-403,-2479,-446,683,-414,349.7103,86.0713,8.8189,1,0
0001002466,7,0.1055,0.6879,-0.1174,0.7085,-828,18,448,-3011,1911,-1311,127,51,-77,320.7895,88.0727,-21.0713,1,0
0001002487,7,0.1283,0.6743,-0.1363,0.7144,-807,108,487,-1959,1283,31,1731,-715,225,337.9461,86.6868,-0.4835,1,0
0001002508,7,0.1665,0.6545,-0.1747,0.7165,-807,108,487,-627,-1411,699,2107,-447,-143,338.4172,84.9327,6.3684,1,0
0001002529,7,0.1879,0.6399,-0.2114,0.7145,-789,177,510,-1567,-1703,1239,1184,-487,-462,326.0971,83.6623,-1.0512,1,0
0001002550,7,0.1874,0.6330,-0.2309,0.7148,-774,159,524,-2383,-355,1331,133,-152,-433,314.7609,82.4842,-10.7594,1,0
0001002571,7,0.1758,0.6417,-0.2317,0.7097,-787,106,507,-1935,-595,147,-348,343,-229,303.7822,82.8637,-22.6520,1,0
0001002592,7,0.1713,0.6478,-0.2282,0.7064,-787,106,507,-1887,-551,-203,-174,93,2,299.3972,83.3775,-27.7286,1,0
0001002613,7,0.1685,0.6471,-0.2234,0.7092,-791,97,504,-2127,-95,295,-240,-145,133,302.3839,83.2847,-25.3788,1,0
0001002634,7,0.1640,0.6460,-0.2159,0.7136,-782,98,511,-2163,-191,383,-351,-95,125,306.8644,83.0953,-21.9112,1,0
