Time(ms),Interval,Qx,Qy,Qz,Qw,Mx,My,Mz,Ax,Ay,Az,Rx,Ry,Rz,H1,P1,R1,H2,P2,R2,CalStable,MagTransient
0000979744,4,0.2704,0.4378,-0.7121,0.4776,-1710,58,973,-1691,-795,951,-29,-4,2,228.1198,53.4465,-37.8224,1,1
0000979765,4,0.2700,0.4383,-0.7117,0.4779,-1717,70,983,-1691,-767,947,-32,-3,7,228.1526,53.4441,-37.8947,1,1
0000979786,4,0.2698,0.4388,-0.7113,0.4783,-1733,72,985,-1675,-767,947,-26,4,10,228.1916,53.4663,-37.9515,1,1
0000979807,4,0.2697,0.4393,-0.7107,0.4786,-1733,72,985,-1667,-771,955,-28,10,11,228.2082,53.5083,-38.0219,1,1
0000979828,4,0.2697,0.4399,-0.7102,0.4789,-1737,78,993,-1659,-767,971,-22,12,9,228.2145,53.5548,-38.0940,1,1
0000979849,4,0.2699,0.4403,-0.7099,0.4789,-1749,87,1003,-1671,-795,983,-13,12,4,228.1909,53.6030,-38.1620,1,1
0000979870,4,0.2699,0.4408,-0.7095,0.4790,-1764,91,1011,-1687,-795,987,-17,7,3,228.1743,53.6402,-38.2310,1,1
0000979891,4,0.2698,0.4413,-0.7092,0.4791,-1775,101,1026,-1675,-731,967,-22,5,0,228.1582,53.6574,-38.3082,1,1
0000979912,4,0.2697,0.4416,-0.7090,0.4792,-1782,106,1045,-1659,-759,943,-7,2,0,228.1500,53.6666,-38.3577,1,1
0000979933,4,0.2697,0.4416,-0.7090,0.4792,-1782,106,1045,-1663,-767,935,4,-2,-1,228.1436,53.6652,-38.3611,1,1
0000979954,4,0.2696,0.4414,-0.7091,0.4792,-1798,112,1060,-1671,-807,951,2,-6,-1,228.1581,53.6481,-38.3355,1,1
0000979975,4,0.2694,0.4414,-0.7092,0.4792,-1808,124,1081,-1667,-819,971,-14,-4,-2,228.1664,53.6262,-38.3427,1,1
0000979996,4,0.2688,0.4420,-0.7089,0.4795,-1817,133,1108,-1663,-795,1011,-41,-8,0,228.1818,53.6063,-38.4274,1,1
0000980017,4,0.2678,0.4428,-0.7082,0.4802,-1827,129,1138,-1675,-747,967,-66,-20,4,228.2450,53.5739,-38.5553,1,1
0000980038,4,0.2667,0.4435,-0.7077,0.4809,-1827,129,1138,-1691,-759,1007,-31,-25,2,228.3376,53.5259,-38.6413,1,1
0000980059,4,0.2658,0.4435,-0.7077,0.4814,-1833,134,1172,-1703,-779,1007,3,-42,-11,228.4334,53.4469,-38.6335,1,1
0000980080,4,0.2649,0.4424,-0.7087,0.4815,-1832,133,1210,-1703,-863,979,35,-44,-17,228.5270,53.2768,-38.4642,1,1
0000980101,4,0.2643,0.4414,-0.7096,0.4814,-1837,129,1253,-1699,-807,899,30,-36,-22,228.5773,53.1426,-38.3311,1,1
0000980122,4,0.2641,0.4404,-0.7107,0.4808,-1839,119,1283,-1695,-703,819,57,-17,-32,228.5423,53.0240,-38.2212,1,1
0000980143,4,0.2649,0.4392,-0.7120,0.4795,-1836,122,1316,-1763,-755,839,97,20,-31,228.3967,52.9802,-38.0851,1,1
0000980164,4,0.2664,0.4380,-0.7137,0.4773,-1836,122,1316,-1779,-783,987,67,26,-50,228.0671,52.9812,-38.0215,1,1
0000980185,4,0.2670,0.4370,-0.7153,0.4755,-1842,110,1349,-1783,-727,963,109,5,-62,227.7914,52.8917,-37.9845,1,1
0000980206,4,0.2683,0.4349,-0.7175,0.4733,-1837,98,1375,-1751,-851,943,138,13,-49,227.5426,52.8156,-37.7613,1,1
0000980227,4,0.2692,0.4332,-0.7195,0.4714,-1833,84,1406,-1699,-659,931,105,0,-62,227.3006,52.7271,-37.6061,1,1
0000980248,4,0.2698,0.4309,-0.7220,0.4693,-1825,73,1432,-1735,-527,891,187,-27,-70,227.0735,52.5626,-37.3785,1,1
0000980269,4,0.2718,0.4253,-0.7268,0.4659,-1825,73,1432,-1783,-547,867,288,-28,-68,226.8400,52.3140,-36.6504,1,1
0000980290,4,0.2747,0.4191,-0.7316,0.4623,-1815,69,1454,-1783,-487,807,349,-17,-77,226.6115,52.1320,-35.8180,1,1
0000980311,4,0.2782,0.4125,-0.7366,0.4581,-1799,83,1467,-1807,-391,719,375,0,-83,226.3007,51.9752,-34.9475,1,1
0000980332,4,0.2822,0.4054,-0.7418,0.4536,-1794,109,1473,-1875,-271,763,394,9,-70,225.9697,51.8607,-34.0123,1,1
0000980353,4,0.2863,0.3984,-0.7465,0.4495,-1792,148,1468,-1919,-219,739,381,-15,-50,225.7215,51.7769,-33.0420,1,1
0000980374,4,0.2910,0.3880,-0.7529,0.4449,-1786,207,1461,-1959,-243,835,442,-56,-36,225.6097,51.5706,-31.5600,1,1
0000980395,4,0.2948,0.3779,-0.7585,0.4416,-1786,207,1461,-1951,-319,867,469,-82,-18,225.6986,51.3467,-30.0704,1,1
0000980416,4,0.2983,0.3677,-0.7639,0.4386,-1777,286,1442,-1935,-383,911,449,-90,-8,225.8587,51.0932,-28.5410,1,1
0000980437,4,0.3014,0.3579,-0.7687,0.4361,-1777,361,1404,-1927,-443,955,407,-91,8,226.0710,50.8555,-27.0745,1,1
0000980458,4,0.3043,0.3494,-0.7723,0.4346,-1775,427,1348,-1919,-443,955,296,-64,57,226.3795,50.6804,-25.7418,1,1
0000980479,4,0.3074,0.3418,-0.7744,0.4347,-1773,479,1287,-1935,-507,1011,168,-23,99,226.9245,50.6545,-24.4224,1,1
0000980500,4,0.3095,0.3393,-0.7737,0.4365,-1778,506,1209,-1919,-475,1051,29,15,129,227.4467,50.8118,-23.7775,1,1
0000980521,4,0.3115,0.3391,-0.7713,0.4395,-1778,506,1209,-1839,-335,1043,-54,63,169,228.0391,51.1243,-23.3999,1,1
0000980542,4,0.3143,0.3402,-0.7673,0.4436,-1772,517,1122,-1795,-291,1047,-108,122,237,228.7802,51.6370,-23.0755,1,1
0000980563,4,0.3180,0.3422,-0.7620,0.4484,-1761,518,1033,-1803,-287,1075,-143,167,265,229.6555,52.3334,-22.7575,1,1
0000980584,4,0.3235,0.3460,-0.7542,0.4547,-1738,513,952,-1823,-227,1087,-163,205,273,230.7804,53.3902,-22.4490,1,1
0000980605,4,0.3285,0.3497,-0.7475,0.4594,-1715,496,870,-1839,-83,1071,-153,229,252,231.6132,54.3263,-22.2687,1,1
0000980626,4,0.3342,0.3529,-0.7416,0.4624,-1715,496,870,-1795,23,1091,-69,265,199,232.1916,55.2902,-22.1201,1,1
0000980647,4,0.3416,0.3549,-0.7371,0.4626,-1686,479,796,-1779,99,1187,63,310,123,232.3792,56.3053,-21.9328,1,1
0000980668,4,0.3537,0.3544,-0.7347,0.4578,-1667,465,720,-1843,43,1227,299,348,20,231.9147,57.5855,-21.5491,1,1
0000980689,4,0.3655,0.3505,-0.7357,0.4497,-1651,447,648,-1907,-59,1303,508,347,-62,231.0067,58.5487,-21.0083,1,1
0000980710,4,0.3786,0.3431,-0.7395,0.4383,-1641,428,573,-1903,-219,1295,703,327,-132,229.7218,59.3950,-20.1706,1,1
0000980731,4,0.3923,0.3325,-0.7456,0.4239,-1631,416,515,-1851,-355,1291,853,283,-196,228.1225,60.0914,-19.1040,1,1
0000980752,4,0.4049,0.3194,-0.7538,0.4073,-1631,416,515,-1787,-671,1327,941,164,-292,226.2468,60.5193,-17.9455,1,1
0000980773,4,0.4164,0.3017,-0.7663,0.3852,-1632,393,470,-1767,-855,1427,905,48,-357,223.5722,60.5265,-16.7311,1,1
0000980794,4,0.4216,0.2884,-0.7770,0.3680,-1623,363,451,-1743,-923,1463,807,-52,-391,221.3343,60.1521,-16.0846,1,1
0000980815,4,0.4231,0.2769,-0.7876,0.3523,-1614,329,454,-1683,-995,1559,666,-142,-409,219.1482,59.4813,-15.7716,1,1
0000980836,4,0.4213,0.2676,-0.7977,0.3384,-1612,289,469,-1551,-995,1579,527,-219,-415,217.0883,58.5757,-15.7760,1,1
0000980857,4,0.4165,0.2597,-0.8079,0.3262,-1612,289,469,-1419,-979,1555,433,-344,-416,215.2068,57.3996,-15.9366,1,1
0000980878,4,0.4064,0.2497,-0.8214,0.3125,-1600,249,505,-1215,-1015,1483,416,-460,-410,213.2042,55.4702,-16.0016,1,1
0000980899,4,0.3958,0.2405,-0.8329,0.3028,-1582,218,558,-1051,-1067,1379,409,-549,-377,211.9658,53.6138,-15.7393,1,1
0000980920,4,0.3834,0.2314,-0.8441,0.2949,-1557,193,620,-971,-1043,1383,328,-591,-332,211.0479,51.6051,-15.3639,1,1
0000980941,4,0.3696,0.2245,-0.8540,0.2891,-1529,164,681,-911,-1067,1459,170,-614,-300,210.3694,49.5693,-15.1682,1,0
0000980962,4,0.3537,0.2213,-0.8628,0.2855,-1501,137,750,-883,-995,1479,-41,-645,-300,209.8083,47.4559,-15.4331,1,0
0000980983,4,0.3314,0.2212,-0.8725,0.2827,-1501,137,750,-859,-803,1487,-103,-658,-292,209.1969,44.7023,-16.2203,1,0
0000981004,4,0.3138,0.2204,-0.8797,0.2812,-1461,104,819,-855,-687,1471,-61,-662,-237,208.9287,42.5339,-16.6580,1,0
0000981025,4,0.2966,0.2178,-0.8863,0.2811,-1423,85,885,-895,-695,1503,-19,-659,-148,208.9922,40.4052,-16.7395,1,0
0000981046,4,0.2802,0.2144,-0.8919,0.2828,-1380,77,940,-955,-731,1575,-48,-629,-54,209.3645,38.3997,-16.6066,1,0
0000981067,4,0.2648,0.2117,-0.8963,0.2859,-1338,75,1003,-1003,-731,1591,-93,-601,-19,209.9046,36.5637,-16.4958,1,0
0000981088,4,0.2463,0.2101,-0.9001,0.2915,-1338,75,1003,-1035,-735,1591,-151,-554,31,210.7208,34.4611,-16.5429,1,0
0000981109,4,0.2326,0.2097,-0.9021,0.2970,-1301,69,1048,-1111,-711,1671,-180,-513,78,211.4889,32.9648,-16.6365,1,0
0000981130,4,0.2197,0.2100,-0.9031,0.3035,-1266,69,1091,-1215,-679,1723,-209,-472,120,212.3647,31.6223,-16.7897,1,0
0000981151,4,0.2081,0.2108,-0.9033,0.3105,-1231,74,1131,-1271,-619,1707,-213,-423,143,213.2861,30.4496,-16.9715,1,0
0000981172,4,0.1956,0.2115,-0.9028,0.3192,-1200,78,1167,-1307,-515,1659,-175,-356,168,214.4496,29.2274,-17.1307,1,0
0000981193,4,0.1875,0.2116,-0.9020,0.3262,-1174,85,1191,-1291,-435,1611,-150,-311,189,215.3903,28.4446,-17.1536,1,0
0000981214,4,0.1805,0.2111,-0.9010,0.3333,-1174,85,1191,-1243,-415,1563,-116,-281,202,216.3451,27.7704,-17.1010,1,0
0000981235,4,0.1747,0.2100,-0.8999,0.3401,-1150,97,1215,-1167,-355,1483,-80,-243,202,217.2758,27.2080,-16.9386,1,0
0000981256,4,0.1702,0.2086,-0.8987,0.3463,-1131,118,1236,-1123,-275,1431,-38,-168,195,218.1367,26.7726,-16.7296,1,0
0000981277,4,0.1677,0.2067,-0.8970,0.3530,-1122,134,1244,-1139,-263,1475,-15,-84,191,219.0800,26.5345,-16.3843,1,0
0000981298,4,0.1680,0.2055,-0.8954,0.3576,-1114,153,1243,-1127,-267,1563,0,-7,181,219.7138,26.6074,-16.0878,1,0
0000981319,4,0.1701,0.2047,-0.8935,0.3616,-1119,179,1234,-1131,-311,1615,21,70,178,220.2666,26.8731,-15.7991,1,0
0000981340,4,0.1747,0.2044,-0.8914,0.3649,-1119,179,1234,-1143,-315,1667,26,172,173,220.7221,27.4261,-15.4812,1,0
0000981361,4,0.1816,0.2054,-0.8887,0.3674,-1140,195,1214,-1171,-243,1739,5,278,158,221.0506,28.2770,-15.2569,1,0
0000981382,4,0.1927,0.2095,-0.8845,0.3696,-1160,209,1182,-1287,-203,1847,-47,397,146,221.2862,29.7164,-15.2374,1,0
0000981403,4,0.2034,0.2147,-0.8805,0.3705,-1195,217,1147,-1383,-155,1979,-83,465,123,221.3230,31.1517,-15.4083,1,0
0000981424,4,0.2139,0.2207,-0.8764,0.3708,-1229,215,1104,-1487,-159,1907,-80,447,96,221.2492,32.5884,-15.7129,1,0
0000981445,4,0.2240,0.2253,-0.8728,0.3704,-1229,215,1104,-1519,-251,1723,-26,415,70,221.1109,33.9203,-15.9047,1,0
0000981466,4,0.2341,0.2290,-0.8698,0.3690,-1260,213,1070,-1583,-343,1655,35,437,25,220.8625,35.1911,-16.0209,1,0
0000981487,4,0.2484,0.2333,-0.8664,0.3650,-1284,211,1028,-1623,-459,1503,47,504,-23,220.2561,36.9235,-16.1905,1,0
0000981508,4,0.2615,0.2382,-0.8633,0.3599,-1326,201,974,-1579,-487,1399,31,600,-74,219.4398,38.5412,-16.5657,1,0
0000981529,4,0.2759,0.2448,-0.8599,0.3530,-1368,180,908,-1571,-519,1347,9,674,-142,218.2607,40.3328,-17.2635,1,0
0000981550,4,0.2912,0.2529,-0.8563,0.3436,-1413,148,837,-1575,-523,1295,14,767,-266,216.5862,42.2530,-18.3477,1,0
0000981571,4,0.3072,0.2619,-0.8529,0.3310,-1413,148,837,-1551,-443,1271,34,806,-346,214.2857,44.2218,-19.8526,1,0
0000981592,4,0.3275,0.2733,-0.8492,0.3112,-1454,103,756,-1583,-375,1311,80,823,-457,210.5682,46.5873,-22.2636,1,0
0000981613,4,0.3426,0.2819,-0.8468,0.2934,-1496,45,674,-1595,-471,1531,102,757,-508,207.1157,48.2147,-24.5033,1,0
0000981634,4,0.3543,0.2901,-0.8452,0.2757,-1519,-13,609,-1507,-571,1927,51,610,-536,203.5703,49.3601,-26.9328,1,0
0000981655,4,0.3606,0.3000,-0.8439,0.2603,-1529,-77,578,-1319,-403,2235,-199,349,-513,200.2470,49.8871,-29.6439,1,0
0000981676,4,0.3609,0.3121,-0.8425,0.2499,-1529,-77,578,-995,111,2235,-291,185,-434,197.6642,49.8353,-32.3997,1,0
0000981697,4,0.3579,0.3213,-0.8428,0.2415,-1530,-141,564,-715,115,2299,-29,18,-276,195.7645,49.3295,-34.4590,1,0
0000981718,4,0.3545,0.3206,-0.8459,0.2366,-1519,-163,573,-215,-267,2723,114,-159,-154,195.2084,48.7175,-34.5928,1,0
0000981739,4,0.3466,0.3182,-0.8497,0.2380,-1503,-168,619,239,-283,2759,-38,-449,10,195.8743,47.7678,-33.9988,1,0
0000981760,4,0.3326,0.3160,-0.8535,0.2471,-1476,-159,685,707,19,2763,-186,-729,271,197.8652,46.3809,-32.9349,1,0
0000981781,4,0.3110,0.3098,-0.8574,0.2685,-1435,-117,777,811,43,2719,-158,-922,506,202.0150,44.4043,-30.6567,1,0
0000981802,4,0.2913,0.2993,-0.8602,0.2926,-1435,-117,777,719,-99,2487,-85,-1120,715,206.5333,42.5622,-27.8801,1,0
0000981823,4,0.2687,0.2854,-0.8621,0.3212,-1376,-40,889,595,-227,2439,-101,-1242,863,211.6687,40.2863,-24.7562,1,0
0000981844,4,0.2445,0.2713,-0.8613,0.3532,-1297,36,1006,251,-383,2391,-213,-1303,960,217.0208,37.8004,-21.8948,1,0
0000981865,4,0.2181,0.2594,-0.8575,0.3871,-1202,100,1114,-75,-387,2383,-393,-1276,1019,222.3044,35.0911,-19.7119,1,0
0000981886,4,0.1852,0.2486,-0.8480,0.4298,-1102,149,1211,-443,-367,2435,-502,-1184,1028,228.5743,31.8576,-18.0048,1,0
0000981907,4,0.1604,0.2431,-0.8375,0.4624,-1102,149,1211,-691,-391,2479,-573,-1060,999,233.2071,29.5637,-17.3133,1,0
0000981928,4,0.1373,0.2404,-0.8253,0.4922,-1012,177,1295,-1103,-435,2395,-617,-900,927,237.3832,27.6025,-17.1695,1,0
0000981949,4,0.1174,0.2405,-0.8122,0.5183,-945,179,1363,-1331,-483,2243,-621,-705,830,241.0197,26.1072,-17.4290,1,0
0000981970,4,0.1018,0.2435,-0.7992,0.5400,-898,165,1415,-1619,-471,2023,-608,-393,686,244.0410,25.1983,-17.9791,1,0
0000981991,4,0.0891,0.2524,-0.7835,0.5608,-893,142,1450,-1547,-479,1787,-594,-151,588,246.9346,25.0110,-19.0349,1,0
0000982012,4,0.0830,0.2625,-0.7715,0.5736,-909,105,1466,-1595,-539,1615,-570,1,503,248.6926,25.4156,-20.0546,1,0
0000982033,4,0.0790,0.2743,-0.7603,0.5835,-909,105,1466,-1603,-527,1375,-573,108,418,250.0410,26.1128,-21.2124,1,0
0000982054,4,0.0761,0.2876,-0.7500,0.5907,-945,55,1473,-1695,-527,1183,-562,198,326,250.9725,26.9939,-22.5416,1,0
0000982075,4,0.0749,0.3022,-0.7409,0.5951,-994,0,1470,-1679,-575,1119,-539,339,208,251.4651,28.0764,-23.9823,1,0
0000982096,4,0.0749,0.3230,-0.7309,0.5965,-1073,-64,1442,-1723,-467,1019,-560,405,114,251.4042,29.6592,-26.1413,1,0
0000982117,4,0.0751,0.3397,-0.7242,0.5954,-1151,-127,1413,-1735,-415,887,-499,412,59,250.9815,30.8800,-27.9775,1,0
0000982138,4,0.0769,0.3552,-0.7184,0.5931,-1151,-127,1413,-1727,-475,863,-414,455,33,250.3635,32.1285,-29.6690,1,0
0000982159,4,0.0798,0.3702,-0.7135,0.5895,-1235,-182,1376,-1839,-535,767,-370,482,-24,249.5090,33.3949,-31.3331,1,0
0000982180,4,0.0832,0.3843,-0.7095,0.5848,-1320,-236,1338,-1807,-551,543,-295,458,-47,248.4616,34.5766,-32.9696,1,0
0000982201,4,0.0878,0.3979,-0.7062,0.5790,-1404,-275,1297,-1747,-555,531,-201,376,-45,247.2172,35.7883,-34.5676,1,0
0000982222,4,0.0900,0.4083,-0.7034,0.5748,-1478,-319,1259,-1875,-603,655,-296,346,-58,246.2748,36.5846,-35.9070,1,0
0000982243,4,0.0907,0.4198,-0.6998,0.5708,-1549,-366,1227,-2107,-579,679,-328,317,-59,245.3257,37.3119,-37.4907,1,1
0000982264,4,0.0912,0.4296,-0.6966,0.5674,-1549,-366,1227,-2163,-663,603,-222,263,-8,244.5078,37.9155,-38.8596,1,1
0000982285,4,0.0938,0.4390,-0.6927,0.5645,-1618,-401,1191,-1975,-943,523,-185,254,16,243.7539,38.7253,-40.0773,1,1
0000982306,4,0.0945,0.4471,-0.6895,0.5620,-1676,-422,1155,-1955,-915,535,-262,228,-46,243.0838,39.2589,-41.2295,1,1
0000982327,4,0.0941,0.4548,-0.6871,0.5587,-1731,-453,1124,-1979,-647,571,-184,206,-67,242.3131,39.6072,-42.4374,1,1
0000982348,4,0.0958,0.4585,-0.6863,0.5564,-1775,-463,1103,-1991,-967,787,-6,121,-14,241.7906,39.9214,-42.9738,1,1
0000982369,4,0.0968,0.4594,-0.6865,0.5553,-1807,-469,1094,-1915,-1291,991,-10,24,-38,241.5708,40.0255,-43.0930,1,1
0000982390,4,0.0958,0.4602,-0.6874,0.5537,-1807,-469,1094,-1835,-1071,1047,1,-2,-91,241.2979,39.8855,-43.3308,1,1
0000982411,4,0.0962,0.4586,-0.6897,0.5520,-1828,-473,1092,-1775,-943,987,157,4,-61,241.0740,39.7246,-43.1885,1,1
0000982432,4,0.0989,0.4555,-0.6924,0.5507,-1851,-462,1091,-1763,-1351,1135,176,20,-23,240.9342,39.6942,-42.6941,1,1
0000982453,4,0.1000,0.4540,-0.6941,0.5496,-1871,-463,1090,-1659,-1431,1295,42,-3,-55,240.7933,39.6346,-42.5066,1,1
0000982474,4,0.0985,0.4536,-0.6954,0.5485,-1876,-471,1092,-1611,-1171,1267,29,-54,-86,240.6448,39.4004,-42.5787,1,1
0000982495,4,0.0978,0.4507,-0.6984,0.5473,-1876,-471,1092,-1611,-1235,1199,156,-50,-69,240.5519,39.0446,-42.2767,1,1
0000982516,4,0.0987,0.4480,-0.7011,0.5458,-1884,-469,1099,-1583,-1491,1183,95,7,-71,240.3931,38.8660,-41.9531,1,1
0000982537,4,0.0974,0.4500,-0.7012,0.5443,-1892,-481,1087,-1507,-1315,1327,-183,36,-71,240.0997,38.7912,-42.3594,1,1
0000982558,4,0.0927,0.4557,-0.6987,0.5437,-1890,-513,1082,-1459,-959,1363,-298,-7,-50,239.8953,38.6887,-43.3565,1,1
0000982579,4,0.0889,0.4591,-0.6965,0.5442,-1895,-529,1078,-1399,-919,1291,-98,-43,2,239.9224,38.5763,-43.9749,1,1
0000982600,4,0.0873,0.4596,-0.6958,0.5450,-1895,-535,1078,-1399,-1031,1211,-11,-23,1,240.0559,38.4908,-44.0693,1,1
0000982621,4,0.0868,0.4595,-0.6957,0.5452,-1895,-535,1078,-1399,-1195,1223,-23,-21,-2,240.1025,38.4478,-44.0710,1,1
0000982642,4,0.0849,0.4603,-0.6950,0.5458,-1887,-537,1086,-1355,-1191,1247,-104,-48,0,240.2029,38.3564,-44.2375,1,1
0000982663,4,0.0821,0.4618,-0.6934,0.5469,-1889,-552,1087,-1291,-1103,1219,-134,-55,1,240.3700,38.2454,-44.5253,1,1
0000982684,4,0.0795,0.4635,-0.6920,0.5477,-1884,-563,1084,-1295,-1039,1107,-101,-13,1,240.4865,38.1477,-44.8317,1,1
0000982705,4,0.0782,0.4660,-0.6903,0.5480,-1888,-570,1080,-1291,-1107,1111,-107,36,19,240.4771,38.2152,-45.2074,1,1
0000982726,4,0.0770,0.4692,-0.6881,0.5482,-1888,-570,1080,-1279,-991,1183,-161,35,16,240.4209,38.3439,-45.6897,1,1
0000982747,4,0.0758,0.4715,-0.6864,0.5484,-1891,-581,1071,-1259,-991,1191,-69,8,12,240.4013,38.4091,-46.0544,1,1
0000982768,4,0.0760,0.4714,-0.6863,0.5487,-1892,-585,1068,-1287,-1211,1163,29,-7,13,240.4539,38.4323,-46.0106,1,1
0000982789,4,0.0763,0.4711,-0.6864,0.5487,-1894,-580,1069,-1271,-1235,1151,-7,11,-7,240.4502,38.4439,-45.9578,1,1
0000982810,4,0.0759,0.4719,-0.6863,0.5483,-1897,-585,1069,-1259,-1259,1155,-42,6,-16,240.3769,38.4351,-46.0972,1,1
0000982831,4,0.0748,0.4728,-0.6858,0.5482,-1901,-599,1068,-1235,-1179,1147,-64,-13,-11,240.3562,38.3882,-46.2848,1,1
0000982852,4,0.0733,0.4738,-0.6850,0.5486,-1901,-599,1068,-1263,-1179,1143,-69,-26,2,240.4123,38.3350,-46.4645,1,1
0000982873,4,0.0720,0.4744,-0.6843,0.5491,-1902,-605,1068,-1279,-1235,1127,-47,-22,-1,240.4957,38.2799,-46.5834,1,1
0000982894,4,0.0704,0.4756,-0.6833,0.5495,-1903,-608,1071,-1331,-1207,1075,-87,-9,0,240.5479,38.2393,-46.7986,1,1
0000982915,4,0.0687,0.4775,-0.6819,0.5498,-1911,-624,1066,-1335,-1099,1067,-109,-6,1,240.5730,38.2261,-47.1136,1,1
0000982936,4,0.0673,0.4790,-0.6808,0.5501,-1909,-632,1064,-1347,-1087,1055,-73,-9,0,240.5977,38.2155,-47.3741,1,1
0000982957,4,0.0665,0.4795,-0.6803,0.5503,-1909,-632,1064,-1335,-1135,1035,-13,-18,-1,240.6372,38.1800,-47.4646,1,1
0000982978,4,0.0663,0.4788,-0.6806,0.5505,-1909,-628,1068,-1331,-1267,1039,36,-23,-4,240.6956,38.1314,-47.3666,1,1
0000982999,4,0.0664,0.4779,-0.6814,0.5504,-1911,-630,1071,-1351,-1279,1027,8,-4,-12,240.7071,38.0683,-47.2439,1,1
0000983020,4,0.0658,0.4783,-0.6812,0.5503,-1917,-636,1069,-1391,-1143,1027,-38,-1,-14,240.6770,38.0331,-47.3425,1,1
0000983041,4,0.0653,0.4789,-0.6810,0.5502,-1915,-638,1070,-1351,-1211,1035,-18,-4,-2,240.6653,38.0121,-47.4408,1,1
0000983062,4,0.0650,0.4790,-0.6808,0.5504,-1914,-639,1070,-1323,-1211,1039,-14,-4,4,240.6890,38.0088,-47.4649,1,1
0000983083,4,0.0648,0.4793,-0.6805,0.5505,-1914,-639,1070,-1291,-1219,1099,-15,1,2,240.6963,38.0145,-47.5162,1,1
0000983104,4,0.0645,0.4796,-0.6802,0.5506,-1918,-640,1067,-1283,-1255,1107,-13,-4,2,240.7129,38.0176,-47.5559,1,1
0000983125,4,0.0642,0.4800,-0.6799,0.5506,-1918,-642,1064,-1295,-1203,1103,-30,1,0,240.7174,38.0143,-47.6257,1,1
0000983146,4,0.0637,0.4806,-0.6795,0.5507,-1916,-642,1066,-1299,-1199,1111,-33,3,3,240.7121,38.0237,-47.7336,1,1
0000983167,4,0.0635,0.4813,-0.6789,0.5508,-1918,-648,1065,-1295,-1195,1091,-36,4,11,240.7189,38.0503,-47.8263,1,1
0000983188,4,0.0631,0.4820,-0.6782,0.5510,-1918,-648,1065,-1295,-1159,1075,-34,4,13,240.7369,38.0889,-47.9322,1,1
0000983209,4,0.0628,0.4826,-0.6776,0.5514,-1921,-647,1058,-1307,-1171,1039,-18,-6,10,240.7805,38.1235,-48.0065,1,1
0000983230,4,0.0626,0.4826,-0.6774,0.5517,-1918,-648,1064,-1279,-1207,1063,-2,-12,6,240.8331,38.1176,-47.9998,1,1
0000983251,4,0.0625,0.4824,-0.6773,0.5519,-1922,-653,1064,-1291,-1223,1067,0,-8,2,240.8750,38.1057,-47.9745,1,1
0000983272,4,0.0624,0.4824,-0.6774,0.5519,-1923,-649,1061,-1331,-1219,1035,-6,9,-3,240.8735,38.0982,-47.9792,1,1
0000983293,4,0.0624,0.4829,-0.6772,0.5517,-1923,-648,1060,-1315,-1183,1043,-22,16,0,240.8254,38.1235,-48.0499,1,1
0000983314,4,0.0625,0.4836,-0.6767,0.5516,-1923,-648,1060,-1291,-1195,1075,-18,13,6,240.7843,38.1736,-48.1582,1,1
0000983335,4,0.0626,0.4840,-0.6765,0.5516,-1927,-654,1058,-1311,-1223,1075,-8,9,6,240.7672,38.2117,-48.2038,1,1
0000983356,4,0.0626,0.4842,-0.6763,0.5516,-1928,-650,1051,-1331,-1223,1059,-6,3,2,240.7640,38.2319,-48.2254,1,1
0000983377,4,0.0625,0.4845,-0.6761,0.5516,-1932,-649,1052,-1315,-1235,1059,-20,5,5,240.7627,38.2456,-48.2701,1,1
0000983398,4,0.0625,0.4850,-0.6757,0.5517,-1930,-648,1051,-1315,-1179,1063,-7,9,5,240.7509,38.2801,-48.3371,1,1
0000983419,4,0.0628,0.4852,-0.6756,0.5516,-1934,-650,1047,-1311,-1243,1031,-1,17,9,240.7328,38.3264,-48.3509,1,1
0000983440,4,0.0631,0.4858,-0.6752,0.5515,-1934,-650,1047,-1263,-1259,1135,-29,21,4,240.6880,38.3898,-48.4350,1,1
0000983461,4,0.0627,0.4865,-0.6748,0.5514,-1934,-655,1046,-1275,-1159,1087,-24,0,-5,240.6558,38.3965,-48.5485,1,1
0000983482,4,0.0626,0.4864,-0.6748,0.5514,-1937,-648,1045,-1327,-1275,1051,13,-6,4,240.6658,38.3877,-48.5390,1,1
0000983503,4,0.0626,0.4864,-0.6747,0.5516,-1940,-652,1043,-1307,-1247,1047,-22,0,6,240.6988,38.3950,-48.5272,1,1
0000983524,4,0.0623,0.4872,-0.6741,0.5517,-1937,-655,1039,-1311,-1187,1039,-39,16,4,240.6846,38.4297,-48.6494,1,1
0000983545,4,0.0622,0.4878,-0.6738,0.5515,-1937,-655,1039,-1335,-1175,1043,-8,10,-4,240.6382,38.4585,-48.7515,1,1
0000983566,4,0.0625,0.4875,-0.6742,0.5514,-1938,-654,1045,-1307,-1199,1043,37,-8,-6,240.6233,38.4438,-48.6954,1,1
0000983587,4,0.0627,0.4862,-0.6749,0.5516,-1943,-651,1046,-1331,-1263,1011,61,-47,5,240.6982,38.3860,-48.4954,1,1
0000983608,4,0.0627,0.4836,-0.6759,0.5525,-1938,-646,1058,-1351,-1247,1027,61,-68,4,240.9309,38.2552,-48.1089,1,1
0000983629,4,0.0623,0.4818,-0.6767,0.5533,-1931,-642,1068,-1299,-1287,1063,47,-54,0,241.1193,38.1247,-47.8338,1,1
0000983650,4,0.0623,0.4810,-0.6771,0.5535,-1931,-641,1068,-1307,-1223,1079,7,2,0,241.1774,38.0853,-47.7128,1,1
0000983671,4,0.0624,0.4818,-0.6767,0.5533,-1931,-641,1068,-1303,-1175,1083,-39,31,3,241.1064,38.1367,-47.8395,1,1
0000983692,4,0.0623,0.4828,-0.6761,0.5531,-1934,-642,1057,-1323,-1095,1091,-26,-1,6,241.0575,38.1933,-47.9822,1,1
0000983713,4,0.0617,0.4824,-0.6759,0.5537,-1934,-644,1063,-1315,-1155,1131,17,-49,2,241.1664,38.1424,-47.9366,1,1
0000983734,4,0.0611,0.4806,-0.6767,0.5544,-1924,-638,1075,-1363,-1175,1095,60,-70,-8,241.3442,37.9975,-47.6843,1,1
0000983755,4,0.0608,0.4784,-0.6779,0.5549,-1923,-634,1084,-1363,-1195,1047,74,-63,-15,241.4994,37.8318,-47.3707,1,1
0000983776,4,0.0606,0.4763,-0.6792,0.5552,-1923,-634,1084,-1359,-1063,963,69,-54,-19,241.6201,37.6743,-47.0848,1,1
0000983797,4,0.0606,0.4740,-0.6806,0.5554,-1913,-628,1091,-1383,-1059,923,119,-55,-11,241.7220,37.5221,-46.7657,1,1
0000983818,4,0.0618,0.4698,-0.6830,0.5559,-1903,-612,1106,-1403,-1103,939,145,-58,-4,241.9035,37.3560,-46.1316,1,1
0000983839,4,0.0627,0.4666,-0.6849,0.5562,-1897,-600,1116,-1435,-979,951,135,-50,-11,242.0276,37.2217,-45.6410,1,1
0000983860,4,0.0641,0.4631,-0.6869,0.5564,-1888,-577,1124,-1455,-1043,947,166,-43,-4,242.1372,37.1134,-45.1110,1,1
0000983881,4,0.0661,0.4595,-0.6893,0.5562,-1874,-557,1131,-1435,-1051,891,183,-13,-25,242.1841,37.0282,-44.5374,1,1
0000983902,4,0.0688,0.4551,-0.6927,0.5553,-1874,-557,1131,-1395,-1015,943,184,-10,-26,242.1215,36.9260,-43.8745,1,1
0000983923,4,0.0710,0.4511,-0.6954,0.5549,-1862,-533,1133,-1415,-971,927,212,-41,-21,242.1372,36.8237,-43.2625,1,1
0000983944,4,0.0733,0.4456,-0.6989,0.5547,-1846,-501,1139,-1435,-943,967,276,-68,-27,242.2234,36.6390,-42.4426,1,1
0000983965,4,0.0759,0.4390,-0.7029,0.5544,-1823,-463,1150,-1487,-899,995,295,-81,-37,242.3291,36.4037,-41.4807,1,1
0000983986,4,0.0781,0.4325,-0.7070,0.5541,-1796,-427,1161,-1475,-1007,1107,286,-82,-19,242.4243,36.1405,-40.5514,1,1
0000984007,4,0.0813,0.4246,-0.7110,0.5546,-1796,-427,1161,-1415,-1051,1071,249,-76,22,242.6883,35.9195,-39.3583,1,1
0000984028,4,0.0836,0.4193,-0.7134,0.5552,-1770,-385,1162,-1507,-875,1039,223,-64,10,242.9028,35.7945,-38.5436,1,1
0000984049,4,0.0861,0.4139,-0.7161,0.5554,-1738,-349,1164,-1583,-739,999,248,-58,3,243.0524,35.6642,-37.7278,1,1
0000984070,4,0.0889,0.4078,-0.7191,0.5556,-1704,-302,1170,-1667,-615,1099,284,-74,2,243.2133,35.5151,-36.8099,1,1
0000984091,4,0.0917,0.4003,-0.7222,0.5566,-1665,-253,1173,-1751,-887,1175,300,-147,83,243.5401,35.3221,-35.6964,1,1
0000984112,4,0.0947,0.3901,-0.7240,0.5609,-1609,-196,1182,-1719,-779,1187,257,-168,160,244.4578,35.0819,-34.0964,1,1
0000984133,4,0.0976,0.3830,-0.7241,0.5652,-1609,-196,1182,-1727,-819,1131,233,-105,187,245.3033,35.0498,-32.8801,1,1
0000984154,4,0.1020,0.3782,-0.7232,0.5688,-1561,-135,1182,-1743,-867,1203,168,18,203,245.9807,35.2960,-31.8735,1,1
0000984175,4,0.1075,0.3771,-0.7204,0.5721,-1522,-88,1160,-1827,-635,1243,58,121,252,246.5544,35.8984,-31.2545,1,1
0000984196,4,0.1151,0.3779,-0.7156,0.5761,-1489,-36,1134,-1967,-427,1199,81,246,384,247.2118,36.8776,-30.6952,1,1
0000984217,4,0.1303,0.3792,-0.7072,0.5823,-1460,36,1096,-2095,-547,1135,158,369,508,248.3418,38.7492,-29.5404,1,1
0000984238,4,0.1474,0.3811,-0.6985,0.5874,-1445,112,1037,-2147,-667,1115,162,524,571,249.3831,40.8232,-28.3472,1,1
0000984259,4,0.1668,0.3868,-0.6878,0.5912,-1445,112,1037,-2247,-563,1147,61,708,582,250.2645,43.3757,-27.4422,1,1
0000984280,4,0.1881,0.3971,-0.6744,0.5933,-1446,177,966,-2423,-327,1223,-34,933,612,250.9220,46.4667,-26.9749,1,1
0000984301,4,0.2121,0.4099,-0.6590,0.5939,-1451,243,880,-2555,-291,1223,-11,1039,634,251.4332,50.0322,-26.6724,1,1
0000984322,4,0.2472,0.4260,-0.6382,0.5918,-1466,317,775,-2611,-251,1091,130,1209,671,251.9580,55.0492,-25.9980,1,0
0000984343,4,0.2805,0.4381,-0.6207,0.5865,-1489,395,646,-2671,-215,1023,271,1372,683,252.2363,59.5719,-25.0972,1,0
0000984364,4,0.3176,0.4501,-0.6026,0.5774,-1489,395,646,-2903,-243,975,358,1513,649,252.2202,64.4937,-24.0903,1,0
0000984385,4,0.3552,0.4629,-0.5841,0.5642,-1510,469,495,-3059,-191,883,379,1591,534,251.4471,69.6108,-23.6634,1,0
0000984406,4,0.4004,0.4789,-0.5633,0.5414,-1531,521,334,-3043,-51,787,510,1594,318,247.6316,75.8249,-25.6400,1,0
0000984427,4,0.4365,0.4884,-0.5512,0.5168,-1552,545,154,-2983,35,531,811,1571,198,239.4392,80.4158,-31.5655,1,0
0000984448,4,0.4755,0.4921,-0.5435,0.4862,-1552,557,-36,-2911,119,327,1176,1565,148,218.9045,84.4722,-48.7592,1,0
0000984469,4,0.5158,0.4911,-0.5390,0.4497,-1551,537,-233,-2803,-91,335,1380,1547,63,160.9394,86.1553,-102.5241,1,0
0000984490,4,0.5530,0.4889,-0.5358,0.4099,-1551,537,-233,-2735,-511,271,1358,1465,-150,117.2262,83.4431,-141.8525,1,0
0000984511,4,0.5909,0.4884,-0.5337,0.3570,-1537,477,-420,-2339,-619,367,1288,1358,-352,103.4109,78.3670,-150.4524,1,0
0000984532,4,0.6146,0.4883,-0.5341,0.3137,-1520,388,-576,-2151,-551,359,1296,1191,-473,100.1669,74.3712,-149.6795,1,0
0000984553,4,0.6339,0.4858,-0.5380,0.2698,-1500,272,-703,-1827,-587,339,1389,1009,-513,98.8762,70.7687,-146.7505,1,0
0000984574,4,0.6494,0.4803,-0.5444,0.2264,-1482,138,-797,-1559,-827,311,1412,833,-543,98.1639,67.5873,-143.0880,1,0
0000984595,4,0.6595,0.4750,-0.5526,0.1846,-1482,138,-797,-1483,-863,291,1285,657,-630,98.3376,64.7254,-138.7724,1,0
0000984616,4,0.6648,0.4715,-0.5632,0.1362,-1460,0,-858,-1399,-687,291,1114,494,-743,99.4854,61.3136,-133.1756,1,0
0000984637,4,0.6650,0.4704,-0.5715,0.0999,-1435,-135,-888,-1347,-455,275,1067,400,-794,100.6005,58.6504,-128.9194,1,0
0000984658,4,0.6622,0.4684,-0.5814,0.0632,-1411,-281,-902,-1271,-399,247,1142,312,-821,101.8638,56.0206,-124.4253,1,0
0000984679,4,0.6574,0.4641,-0.5931,0.0260,-1377,-431,-884,-1223,-587,307,1243,203,-805,103.0530,53.5089,-119.7549,1,0
0000984700,4,0.6495,0.4578,-0.6070,-0.0101,-1350,-570,-840,-1347,-887,411,1231,32,-787,104.4140,51.1907,-114.8032,1,0
0000984721,4,0.6358,0.4495,-0.6252,-0.0527,-1350,-570,-840,-1323,-1039,403,1200,-40,-785,106.2516,48.3836,-108.6843,1,0
0000984742,4,0.6233,0.4426,-0.6391,-0.0847,-1323,-705,-778,-1207,-1083,327,1174,-93,-748,107.5361,46.1984,-104.1196,1,0
0000984763,4,0.6090,0.4343,-0.6537,-0.1146,-1289,-824,-705,-1135,-1231,367,1158,-195,-676,108.8585,44.1648,-99.5608,1,0
0000984784,4,0.5934,0.4254,-0.6686,-0.1409,-1259,-918,-604,-1151,-1455,371,1084,-307,-592,110.2730,42.3521,-95.1357,1,0
0000984805,4,0.5767,0.4168,-0.6832,-0.1643,-1237,-1003,-514,-1171,-1627,463,980,-321,-564,111.7180,40.6159,-90.9541,1,0
0000984826,4,0.5573,0.4095,-0.6972,-0.1888,-1237,-1003,-514,-1079,-1531,571,741,-274,-527,113.1367,38.4948,-86.8226,1,0
0000984847,4,0.5434,0.4057,-0.7058,-0.2048,-1207,-1063,-439,-1047,-1487,559,633,-276,-465,114.0302,36.9344,-84.2347,1,0
0000984868,4,0.5293,0.4019,-0.7146,-0.2184,-1177,-1112,-364,-1051,-1547,591,595,-337,-400,115.0193,35.5121,-81.7587,1,0
0000984889,4,0.5145,0.3977,-0.7241,-0.2299,-1157,-1154,-286,-1079,-1723,603,606,-397,-355,116.1867,34.2064,-79.2494,1,0
0000984910,4,0.4956,0.3926,-0.7358,-0.2426,-1133,-1188,-210,-1099,-1743,587,523,-392,-332,117.6558,32.6013,-76.2389,1,0
0000984931,4,0.4822,0.3907,-0.7428,-0.2511,-1108,-1213,-149,-1055,-1631,631,381,-330,-328,118.5993,31.3466,-74.3987,1,0
0000984952,4,0.4707,0.3901,-0.7479,-0.2586,-1108,-1213,-149,-1151,-1639,639,318,-285,-309,119.2992,30.1545,-73.0200,1,0
0000984973,4,0.4598,0.3894,-0.7527,-0.2653,-1085,-1241,-103,-1147,-1631,659,306,-287,-275,119.9498,29.0535,-71.7362,1,0
0000984994,4,0.4492,0.3889,-0.7573,-0.2709,-1059,-1260,-55,-1167,-1555,683,247,-282,-253,120.6196,28.0165,-70.5583,1,0
0000985015,4,0.4374,0.3892,-0.7617,-0.2775,-1034,-1277,-14,-1199,-1547,683,217,-215,-261,121.2628,26.7683,-69.3863,1,0
0000985036,4,0.4297,0.3888,-0.7641,-0.2834,-1013,-1294,15,-1163,-1555,671,230,-146,-249,121.4958,25.8675,-68.6016,1,0
0000985057,4,0.4227,0.3876,-0.7663,-0.2896,-1013,-1294,15,-1107,-1491,647,251,-130,-228,121.6153,25.0468,-67.8075,1,0
0000985078,4,0.4157,0.3856,-0.7689,-0.2954,-992,-1309,49,-1059,-1527,655,272,-140,-207,121.7681,24.2964,-66.9401,1,0
0000985099,4,0.4089,0.3837,-0.7714,-0.3010,-962,-1317,84,-1067,-1623,643,216,-113,-201,121.9060,23.5740,-66.1102,1,0
0000985120,4,0.4021,0.3827,-0.7730,-0.3072,-946,-1329,109,-999,-1599,639,152,-84,-200,121.9377,22.7329,-65.4113,1,0
0000985141,4,0.3978,0.3830,-0.7734,-0.3113,-928,-1339,123,-983,-1611,695,92,-71,-177,121.9152,22.1356,-65.0914,1,0
0000985162,4,0.3945,0.3842,-0.7732,-0.3147,-907,-1345,136,-1027,-1587,723,26,-44,-158,121.8558,21.6079,-64.9552,1,0
0000985183,4,0.3928,0.3861,-0.7719,-0.3175,-907,-1345,136,-983,-1575,835,-23,9,-159,121.6807,21.1716,-65.0599,1,0
0000985204,4,0.3925,0.3880,-0.7696,-0.3211,-894,-1361,130,-907,-1635,895,-28,86,-158,121.3049,20.7933,-65.2903,1,0
0000985225,4,0.3932,0.3894,-0.7665,-0.3261,-878,-1365,121,-831,-1679,931,-3,106,-157,120.6780,20.4105,-65.5704,1,0
0000985246,4,0.3937,0.3900,-0.7639,-0.3306,-862,-1374,118,-879,-1659,947,0,112,-167,120.1337,20.1000,-65.7451,1,0
0000985267,4,0.3944,0.3912,-0.7609,-0.3353,-847,-1383,109,-915,-1635,955,-27,125,-184,119.5404,19.7511,-65.9975,1,0
0000985288,4,0.3956,0.3928,-0.7574,-0.3401,-847,-1383,109,-963,-1555,911,-47,143,-194,118.8855,19.3885,-66.3396,1,0
0000985309,4,0.3967,0.3943,-0.7537,-0.3452,-827,-1394,95,-1011,-1515,879,-14,132,-192,118.2166,19.0139,-66.6743,1,0
0000985330,4,0.3970,0.3948,-0.7503,-0.3515,-808,-1401,93,-987,-1507,839,54,98,-177,117.4910,18.5489,-66.8308,1,0
0000985351,4,0.3956,0.3938,-0.7492,-0.3566,-795,-1409,103,-979,-1587,827,133,46,-163,117.0879,18.1711,-66.6307,1,0
0000985372,4,0.3929,0.3922,-0.7490,-0.3618,-779,-1417,120,-951,-1639,815,160,14,-162,116.8073,17.7449,-66.2447,1,0
0000985393,4,0.3899,0.3908,-0.7490,-0.3665,-758,-1423,135,-947,-1591,815,138,0,-157,116.5894,17.3172,-65.8558,1,0
0000985414,4,0.3864,0.3899,-0.7489,-0.3713,-758,-1423,135,-903,-1511,827,106,-26,-134,116.4079,16.8068,-65.4717,1,0
0000985435,4,0.3832,0.3894,-0.7492,-0.3744,-748,-1426,148,-887,-1511,847,113,-43,-115,116.3575,16.4184,-65.1535,1,0
0000985456,4,0.3801,0.3884,-0.7499,-0.3774,-737,-1430,159,-891,-1523,907,127,-38,-107,116.3347,16.0720,-64.7821,1,0
0000985477,4,0.3773,0.3872,-0.7503,-0.3805,-721,-1432,176,-879,-1527,939,122,-13,-103,116.2558,15.7509,-64.4230,1,0
0000985498,4,0.3748,0.3856,-0.7508,-0.3837,-715,-1431,195,-775,-1503,903,143,-7,-93,116.1423,15.4783,-64.0506,1,0
0000985519,4,0.3721,0.3836,-0.7515,-0.3869,-715,-1431,195,-763,-1479,895,162,-18,-89,116.0477,15.2112,-63.6135,1,0
0000985540,4,0.3684,0.3807,-0.7527,-0.3909,-704,-1437,206,-787,-1471,927,163,-15,-88,115.9559,14.8861,-63.0035,1,0
0000985561,4,0.3657,0.3783,-0.7536,-0.3941,-695,-1433,228,-799,-1519,959,163,-6,-85,115.8584,14.6481,-62.5274,1,0
0000985582,4,0.3627,0.3757,-0.7546,-0.3973,-686,-1435,246,-835,-1607,987,182,-22,-78,115.7813,14.4073,-62.0098,1,0
0000985603,4,0.3594,0.3731,-0.7560,-0.4000,-681,-1435,261,-839,-1747,1015,170,-37,-64,115.7741,14.1816,-61.4609,1,0
0000985624,4,0.3567,0.3710,-0.7572,-0.4023,-674,-1432,272,-819,-1799,1119,73,-9,-37,115.7742,13.9808,-61.0108,1,0
0000985645,4,0.3568,0.3709,-0.7569,-0.4028,-674,-1432,272,-751,-1847,1191,-34,30,-7,115.7025,13.9577,-61.0136,1,0
0000985666,4,0.3585,0.3719,-0.7557,-0.4026,-675,-1435,264,-595,-1823,1207,-93,52,-4,115.5755,14.0214,-61.2696,1,0
0000985687,4,0.3606,0.3734,-0.7540,-0.4026,-675,-1439,251,-411,-1727,1139,-94,60,-23,115.3864,14.0672,-61.6192,1,0
0000985708,4,0.3616,0.3742,-0.7527,-0.4033,-674,-1440,245,-451,-1651,1035,-2,21,-41,115.2054,14.0371,-61.8092,1,0
0000985729,4,0.3606,0.3737,-0.7526,-0.4049,-670,-1440,256,-535,-1639,911,77,-18,-42,115.1220,13.8957,-61.6695,1,0
0000985750,4,0.3582,0.3723,-0.7536,-0.4064,-667,-1442,270,-491,-1743,903,124,-45,-39,115.1624,13.7334,-61.3210,1,0
0000985771,4,0.3556,0.3711,-0.7547,-0.4077,-667,-1442,270,-435,-1751,951,83,-54,-45,115.2463,13.5478,-60.9801,1,0
0000985792,4,0.3537,0.3713,-0.7551,-0.4084,-661,-1443,278,-411,-1655,979,14,-56,-43,115.3250,13.3435,-60.8383,1,0
0000985813,4,0.3518,0.3720,-0.7554,-0.4088,-651,-1442,281,-423,-1511,979,22,-64,-38,115.4285,13.1455,-60.7585,1,0
0000985834,4,0.3487,0.3718,-0.7567,-0.4094,-650,-1443,296,-475,-1471,991,82,-80,-26,115.6261,12.8991,-60.4799,1,0
0000985855,4,0.3461,0.3708,-0.7580,-0.4101,-647,-1442,303,-431,-1543,999,100,-53,-15,115.7740,12.7485,-60.1504,1,0
0000985876,4,0.3443,0.3694,-0.7590,-0.4109,-647,-1442,303,-387,-1559,1015,75,-19,-17,115.8365,12.6585,-59.8568,1,0
0000985897,4,0.3434,0.3686,-0.7594,-0.4117,-642,-1440,316,-303,-1499,1043,39,0,-20,115.8236,12.5959,-59.6979,1,0
0000985918,4,0.3428,0.3678,-0.7596,-0.4126,-641,-1437,314,-339,-1491,1087,39,9,-17,115.7797,12.5475,-59.5707,1,0
0000985939,4,0.3426,0.3664,-0.7597,-0.4138,-643,-1440,317,-391,-1535,1143,40,36,-4,115.6685,12.5534,-59.4090,1,0
0000985960,4,0.3434,0.3654,-0.7597,-0.4141,-643,-1437,316,-547,-1591,1175,2,41,28,115.5778,12.6535,-59.3684,1,0
0000985981,4,0.3448,0.3650,-0.7598,-0.4130,-652,-1436,309,-635,-1627,1163,-48,18,77,115.5930,12.8538,-59.4391,1,0
0000986002,4,0.3466,0.3654,-0.7602,-0.4104,-652,-1436,309,-507,-1659,1167,-59,-5,113,115.7386,13.1223,-59.6022,1,0
0000986023,4,0.3481,0.3654,-0.7615,-0.4068,-667,-1434,305,-447,-1739,1143,-37,-30,116,116.0255,13.4710,-59.7005,1,0
0000986044,4,0.3486,0.3657,-0.7628,-0.4036,-677,-1429,302,-543,-1755,1127,-53,-64,109,116.3457,13.6858,-59.7490,1,0
0000986065,4,0.3488,0.3669,-0.7640,-0.4002,-679,-1422,304,-587,-1731,1099,-68,-77,99,116.7138,13.8439,-59.8588,1,0
0000986086,4,0.3490,0.3681,-0.7650,-0.3969,-693,-1424,291,-567,-1767,1111,-70,-65,91,117.0593,13.9887,-59.9866,1,0
0000986107,4,0.3493,0.3694,-0.7657,-0.3940,-693,-1424,291,-571,-1783,1079,-51,-62,69,117.3522,14.1139,-60.1194,1,0
0000986128,4,0.3486,0.3704,-0.7670,-0.3912,-695,-1420,292,-555,-1783,1063,-9,-79,49,117.7132,14.1795,-60.1444,1,0
0000986149,4,0.3470,0.3706,-0.7684,-0.3897,-693,-1417,301,-559,-1751,1039,26,-91,29,118.0127,14.1462,-60.0251,1,0
0000986170,4,0.3451,0.3706,-0.7697,-0.3888,-698,-1420,307,-591,-1739,1047,37,-82,16,118.2825,14.0665,-59.8502,1,0
0000986191,4,0.3433,0.3706,-0.7709,-0.3881,-699,-1417,309,-591,-1727,1035,31,-72,5,118.5061,13.9810,-59.6907,1,0
0000986212,4,0.3416,0.3707,-0.7718,-0.3877,-695,-1418,320,-583,-1675,1039,25,-64,-5,118.6903,13.8746,-59.5592,1,0
0000986233,4,0.3396,0.3708,-0.7727,-0.3874,-695,-1418,320,-591,-1631,1047,28,-54,-8,118.8811,13.7410,-59.4112,1,0
0000986254,4,0.3382,0.3707,-0.7734,-0.3874,-691,-1416,323,-591,-1635,1051,37,-42,-7,118.9958,13.6449,-59.2810,1,0
0000986275,4,0.3369,0.3702,-0.7741,-0.3875,-691,-1416,329,-591,-1635,1047,47,-40,-6,119.0962,13.5688,-59.1200,1,0
0000986296,4,0.3353,0.3696,-0.7750,-0.3876,-685,-1416,336,-603,-1647,1039,54,-49,-3,119.2160,13.4906,-58.9293,1,0
0000986317,4,0.3338,0.3692,-0.7760,-0.3875,-689,-1416,343,-607,-1679,1035,30,-52,7,119.3596,13.4120,-58.7492,1,0
0000986338,4,0.3325,0.3694,-0.7768,-0.3866,-689,-1416,343,-607,-1667,1051,-9,-46,12,119.5527,13.3548,-58.6673,1,0
0000986359,4,0.3321,0.3702,-0.7771,-0.3857,-687,-1414,344,-591,-1655,1063,-27,-35,13,119.6860,13.3338,-58.7085,1,0
0000986380,4,0.3318,0.3707,-0.7773,-0.3850,-685,-1417,342,-575,-1647,1067,-9,-23,13,119.7816,13.3249,-58.7419,1,0
0000986401,4,0.3315,0.3707,-0.7777,-0.3845,-685,-1412,345,-603,-1655,1055,6,-20,10,119.8611,13.3311,-58.7181,1,0
0000986422,4,0.3312,0.3707,-0.7780,-0.3842,-691,-1412,345,-591,-1679,1047,14,-13,5,119.9231,13.3231,-58.6753,1,0
0000986443,4,0.3308,0.3703,-0.7784,-0.3842,-688,-1415,348,-583,-1703,1059,19,-3,2,119.9614,13.3267,-58.6007,1,0
0000986464,4,0.3307,0.3699,-0.7786,-0.3842,-688,-1415,348,-555,-1743,1075,11,0,-1,119.9683,13.3324,-58.5551,1,0
0000986485,4,0.3306,0.3699,-0.7786,-0.3844,-686,-1413,350,-571,-1747,1079,0,1,-6,119.9581,13.3218,-58.5427,1,0
0000986506,4,0.3306,0.3703,-0.7783,-0.3844,-686,-1412,349,-575,-1727,1071,-23,-2,-13,119.9459,13.2991,-58.5916,1,0
0000986527,4,0.3308,0.3715,-0.7777,-0.3844,-686,-1415,344,-559,-1659,1063,-42,-2,-21,119.9217,13.2317,-58.7351,1,0
0000986548,4,0.3310,0.3725,-0.7771,-0.3846,-683,-1417,342,-567,-1615,1075,-32,1,-25,119.8835,13.1727,-58.8625,1,0
0000986569,4,0.3309,0.3729,-0.7767,-0.3850,-677,-1418,342,-551,-1619,1095,0,1,-26,119.8370,13.1115,-58.9060,1,0
0000986590,4,0.3305,0.3728,-0.7765,-0.3857,-677,-1418,342,-547,-1643,1103,18,2,-25,119.7910,13.0463,-58.8772,1,0
0000986611,4,0.3302,0.3726,-0.7764,-0.3864,-676,-1418,345,-555,-1623,1103,7,5,-23,119.7398,12.9913,-58.8330,1,0
0000986632,4,0.3300,0.3726,-0.7762,-0.3871,-680,-1420,340,-535,-1607,1079,4,8,-17,119.6749,12.9365,-58.8279,1,0
0000986653,4,0.3299,0.3724,-0.7761,-0.3875,-670,-1419,345,-515,-1627,1079,8,3,-10,119.6395,12.9154,-58.8052,1,0
0000986674,4,0.3298,0.3725,-0.7761,-0.3876,-673,-1419,348,-527,-1635,1079,-8,-6,-6,119.6371,12.8937,-58.7998,1,0
0000986695,4,0.3298,0.3731,-0.7758,-0.3874,-673,-1419,348,-543,-1587,1079,-28,-8,-4,119.6497,12.8671,-58.8659,1,0
0000986716,4,0.3299,0.3737,-0.7757,-0.3871,-677,-1423,339,-535,-1587,1079,-20,-11,2,119.6771,12.8519,-58.9338,1,0
0000986737,4,0.3297,0.3741,-0.7758,-0.3866,-674,-1421,339,-555,-1607,1063,-5,-18,8,119.7440,12.8437,-58.9545,1,0
0000986758,4,0.3295,0.3742,-0.7760,-0.3862,-673,-1422,344,-567,-1603,1063,-10,-12,9,119.8002,12.8470,-58.9610,1,0
0000986779,4,0.3297,0.3745,-0.7761,-0.3857,-677,-1421,339,-571,-1619,1063,-18,-6,15,119.8464,12.8750,-58.9941,1,0
0000986800,4,0.3299,0.3748,-0.7761,-0.3851,-681,-1421,334,-551,-1611,1055,-19,-5,16,119.8887,12.9073,-59.0462,1,0
0000986821,4,0.3302,0.3750,-0.7762,-0.3846,-681,-1421,334,-551,-1603,1087,-8,5,16,119.9166,12.9528,-59.0812,1,0
0000986842,4,0.3307,0.3747,-0.7763,-0.3842,-681,-1418,340,-579,-1687,1091,-4,10,21,119.9279,13.0368,-59.0913,1,0
0000986863,4,0.3313,0.3747,-0.7763,-0.3837,-681,-1422,335,-579,-1679,1087,-21,8,21,119.9369,13.1096,-59.1346,1,0
0000986884,4,0.3318,0.3750,-0.7762,-0.3832,-684,-1421,331,-567,-1659,1075,-28,6,22,119.9493,13.1607,-59.1966,1,0
0000986905,4,0.3323,0.3752,-0.7762,-0.3826,-686,-1418,328,-571,-1683,1075,-14,0,23,119.9772,13.2264,-59.2549,1,0
0000986926,4,0.3327,0.3753,-0.7763,-0.3820,-686,-1418,328,-587,-1703,1071,-20,-5,21,120.0180,13.2838,-59.2942,1,0
0000986947,4,0.3330,0.3759,-0.7763,-0.3811,-690,-1420,330,-587,-1671,1051,-28,-13,16,120.0883,13.3270,-59.3771,1,0
0000986968,4,0.3331,0.3765,-0.7763,-0.3804,-691,-1424,323,-591,-1635,1035,-26,-15,11,120.1503,13.3376,-59.4493,1,0
0000986989,4,0.3331,0.3769,-0.7763,-0.3798,-693,-1419,326,-611,-1659,1055,-13,-15,12,120.2105,13.3454,-59.4925,1,0
0000987010,4,0.3330,0.3772,-0.7765,-0.3793,-693,-1417,325,-599,-1651,1023,-14,-18,15,120.2779,13.3572,-59.5103,1,0
0000987031,4,0.3330,0.3778,-0.7767,-0.3784,-694,-1420,320,-627,-1619,1007,-24,-17,16,120.3746,13.3740,-59.5672,1,0
0000987052,4,0.3333,0.3783,-0.7767,-0.3774,-694,-1420,320,-579,-1679,995,-32,-8,33,120.4472,13.4256,-59.6439,1,0
0000987073,4,0.3346,0.3790,-0.7766,-0.3758,-697,-1419,319,-579,-1931,1015,-85,22,68,120.5157,13.5823,-59.8092,1,0
0000987094,4,0.3383,0.3819,-0.7752,-0.3725,-706,-1418,298,-679,-1819,947,-282,34,110,120.5647,13.8841,-60.4017,1,0
0000987115,4,0.3455,0.3885,-0.7726,-0.3644,-725,-1422,243,-735,-1371,735,-674,0,205,120.8057,14.5260,-61.6647,1,0
0000987136,4,0.3583,0.4050,-0.7654,-0.3488,-752,-1424,160,-691,-559,543,-824,24,310,121.2326,15.4292,-64.4898,1,0
0000987157,4,0.3721,0.4143,-0.7613,-0.3323,-752,-1424,160,-715,-347,551,-786,73,459,121.6702,16.9257,-66.6044,1,0
0000987178,4,0.3868,0.4227,-0.7568,-0.3145,-797,-1406,83,-767,-319,603,-760,107,625,122.0639,18.6391,-68.7517,1,0
0000987199,4,0.4042,0.4259,-0.7549,-0.2921,-868,-1377,-5,-891,-67,595,-787,125,749,122.6164,21.1918,-70.5526,1,0
0000987220,4,0.4219,0.4311,-0.7509,-0.2689,-947,-1327,-82,-1023,171,711,-690,138,887,123.0404,23.6879,-72.7035,1,0
0000987241,4,0.4441,0.4273,-0.7511,-0.2367,-1030,-1256,-143,-1203,83,699,-527,92,1031,123.8714,27.7071,-74.2453,1,0
0000987262,4,0.4607,0.4196,-0.7538,-0.2084,-1130,-1171,-179,-1519,31,703,-386,25,1137,124.8855,31.3052,-74.8443,1,0
0000987283,4,0.4751,0.4103,-0.7571,-0.1808,-1130,-1171,-179,-1755,-47,763,-261,-22,1240,126.0551,34.8282,-75.0528,1,0
0000987304,4,0.4888,0.3948,-0.7634,-0.1499,-1229,-1067,-202,-2199,-583,939,-147,-96,1357,127.8140,38.8980,-74.3171,1,0
0000987325,4,0.4996,0.3786,-0.7702,-0.1176,-1325,-938,-189,-2475,-1319,879,-56,-344,1465,130.2236,42.8866,-73.0073,1,0
0000987346,4,0.5058,0.3546,-0.7832,-0.0704,-1416,-798,-149,-2603,-1751,855,-126,-605,1524,135.5625,47.9360,-69.2996,1,0
0000987367,4,0.5039,0.3369,-0.7949,-0.0259,-1501,-642,-80,-2687,-2071,795,-294,-888,1584,142.1891,51.5962,-64.7431,1,0
0000987388,4,0.4955,0.3250,-0.8052,0.0228,-1557,-481,25,-2547,-1687,895,-501,-1140,1567,150.6681,54.3634,-59.2734,1,0
0000987409,4,0.4797,0.3123,-0.8165,0.0751,-1557,-481,25,-2827,-1875,1099,-477,-1451,1547,161.4778,56.1296,-51.7946,1,0
0000987430,4,0.4573,0.2989,-0.8278,0.1275,-1582,-322,176,-2839,-2019,1251,-484,-1678,1554,173.5301,56.4400,-43.1822,1,0
0000987451,4,0.4198,0.2807,-0.8405,0.1963,-1572,-173,354,-2739,-2015,1491,-634,-1832,1546,189.3812,54.6787,-32.0838,1,0
0000987472,4,-0.3842,-0.2700,0.8461,-0.2523,-1525,-43,547,-2503,-1855,1611,-808,-1896,1517,200.8123,51.8506,-25.1946,1,0
0000987493,4,-0.3453,-0.2611,0.8472,-0.3080,-1437,66,742,-1999,-1491,1759,-902,-1895,1472,210.8490,48.2416,-20.1748,1,0
0000987514,4,-0.3047,-0.2514,0.8452,-0.3601,-1437,66,742,-1755,-1071,1775,-792,-1883,1361,219.3687,44.1119,-16.6410,1,0
0000987535,4,-0.2544,-0.2324,0.8417,-0.4157,-1319,146,928,-1431,-771,1659,-449,-1866,1173,227.9332,38.4180,-13.2584,1,0
0000987556,4,-0.2165,-0.2111,0.8386,-0.4532,-1177,215,1084,-1323,-675,1527,-231,-1789,1068,233.4656,33.6671,-10.9250,1,0
0000987577,4,-0.1822,-0.1883,0.8339,-0.4858,-1023,287,1218,-1175,-631,1499,-145,-1622,994,238.0988,29.1293,-9.0233,1,0
0000987598,4,-0.1508,-0.1689,0.8272,-0.5143,-883,324,1322,-1315,-575,1607,-264,-1407,875,241.9940,25.0374,-7.8856,1,0
0000987619,4,-0.1212,-0.1561,0.8194,-0.5381,-756,328,1395,-1443,-575,1559,-411,-1157,670,245.1151,21.5053,-7.7394,1,0
0000987640,4,-0.0875,-0.1457,0.8102,-0.5609,-756,328,1395,-1299,-395,1451,-408,-982,513,248.0884,17.7715,-8.3309,1,0
0000987661,4,-0.0651,-0.1393,0.8039,-0.5746,-650,319,1453,-1123,-211,1463,-310,-815,417,249.9114,15.3551,-8.8941,1,0
0000987682,4,-0.0469,-0.1326,0.7981,-0.5859,-564,315,1493,-975,-231,1615,-236,-721,372,251.4832,13.3089,-9.2665,1,0
0000987703,4,-0.0297,-0.1263,0.7929,-0.5953,-490,300,1529,-1183,-207,1715,-230,-662,282,252.8318,11.3965,-9.6860,1,0
0000987724,4,-0.0151,-0.1214,0.7894,-0.6015,-434,286,1549,-1167,-127,1631,-184,-477,116,253.7417,9.7787,-10.1405,1,0
0000987745,4,-0.0019,-0.1179,0.7877,-0.6047,-434,286,1549,-1055,19,1723,-157,-313,12,254.2376,8.3762,-10.6858,1,0
0000987766,4,0.0057,-0.1165,0.7877,-0.6049,-398,272,1562,-975,103,1847,-108,-238,-45,254.3082,7.5883,-11.0788,1,0
0000987787,4,0.0111,-0.1130,0.7889,-0.6039,-373,269,1572,-959,215,1775,35,-256,-97,254.2048,6.8324,-11.1297,1,0
0000987808,4,0.0139,-0.1053,0.7915,-0.6018,-354,281,1579,-991,255,1691,251,-230,-163,253.9309,6.0107,-10.6349,1,0
0000987829,4,0.0124,-0.0950,0.7957,-0.5981,-336,315,1571,-931,-35,1703,387,-128,-234,253.4118,5.3907,-9.5952,1,0
0000987850,4,0.0081,-0.0829,0.8020,-0.5915,-331,346,1569,-887,-163,1747,359,-79,-290,252.4666,4.8799,-8.2313,1,0
0000987871,4,0.0045,-0.0741,0.8076,-0.5850,-331,346,1569,-851,-255,1827,373,-59,-318,251.5472,4.5498,-7.1986,1,0
0000987892,4,-0.0004,-0.0646,0.8133,-0.5782,-335,379,1559,-783,-519,1919,439,-30,-319,250.5886,4.3206,-6.0220,1,0
0000987913,4,-0.0071,-0.0545,0.8190,-0.5711,-343,421,1544,-779,-743,1979,469,27,-326,249.6003,4.2405,-4.6704,1,0
0000987934,4,-0.0144,-0.0469,0.8243,-0.5640,-356,453,1530,-839,-747,1995,381,102,-304,248.6269,4.3966,-3.5078,1,0
0000987955,4,-0.0242,-0.0408,0.8293,-0.5568,-382,483,1511,-735,-711,1899,345,184,-212,247.6521,4.9136,-2.3433,1,0
0000987976,4,-0.0347,-0.0365,0.8321,-0.5523,-382,483,1511,-575,-719,1919,361,272,-166,247.0799,5.6282,-1.2914,1,0
0000987997,4,-0.0455,-0.0348,0.8344,-0.5482,-417,514,1486,-355,-679,1991,259,325,-159,246.5902,6.5509,-0.4698,1,0
0000988018,4,-0.0551,-0.0358,0.8365,-0.5440,-456,530,1470,-251,-499,2075,137,302,-184,246.0694,7.5372,0.0042,1,0
0000988039,4,-0.0629,-0.0369,0.8390,-0.5392,-485,539,1456,-131,-455,2063,205,223,-214,245.4798,8.3583,0.3364,1,0
0000988060,4,-0.0721,-0.0344,0.8427,-0.5324,-518,554,1437,-3,-483,1991,243,168,-207,244.6601,9.1021,1.0972,1,0
0000988081,4,-0.0781,-0.0324,0.8449,-0.5281,-537,569,1425,127,-399,2015,200,152,-149,244.1492,9.5680,1.6144,1,0
0000988102,4,-0.0830,-0.0305,0.8463,-0.5253,-537,569,1425,207,-439,2019,182,112,-90,243.8347,9.9368,2.0669,1,0
0000988123,4,-0.0865,-0.0286,0.8473,-0.5233,-550,588,1419,231,-439,1935,57,30,-71,243.6181,10.1707,2.4519,1,0
0000988144,4,-0.0857,-0.0292,0.8486,-0.5212,-559,585,1415,243,-275,1895,-45,-33,-90,243.3218,10.1319,2.3118,1,0
0000988165,4,-0.0832,-0.0302,0.8498,-0.5196,-561,582,1416,199,-167,2179,-58,-54,-81,243.0579,9.9497,2.0458,1,0
0000988186,4,-0.0807,-0.0313,0.8509,-0.5182,-563,579,1426,119,-67,2347,-93,-76,-65,242.8334,9.7730,1.7634,1,0
0000988207,4,-0.0759,-0.0313,0.8519,-0.5172,-563,579,1426,107,127,2315,-45,-193,-53,242.6478,9.3054,1.4652,1,0
0000988228,4,-0.0702,-0.0267,0.8530,-0.5165,-546,579,1433,51,-3,2223,101,-352,-31,242.5035,8.4701,1.5571,1,0
0000988249,4,-0.0607,-0.0173,0.8545,-0.5156,-519,594,1443,87,-207,2127,90,-406,-41,242.3298,6.9818,1.9092,1,0
0000988270,4,-0.0512,-0.0117,0.8560,-0.5144,-483,608,1465,147,-227,2207,-42,-404,-88,242.0979,5.7269,1.8806,1,0
0000988291,4,-0.0397,-0.0094,0.8586,-0.5110,-455,595,1493,231,-295,2355,-189,-425,-211,241.5684,4.4634,1.3995,1,0
0000988312,4,-0.0262,-0.0094,0.8628,-0.5047,-428,564,1524,603,-543,2483,-242,-432,-334,240.6654,3.1375,0.5880,1,0
0000988333,4,-0.0116,-0.0091,0.8679,-0.4965,-428,564,1524,719,-663,2443,-237,-551,-365,239.5398,1.6686,-0.2512,1,0
0000988354,4,0.0095,-0.0049,0.8732,-0.4872,-389,541,1561,643,-907,2279,-122,-636,-294,238.3246,-0.6803,-1.0226,1,0
0000988375,4,0.0266,0.0001,0.8760,-0.4816,-334,543,1606,571,-1063,2007,-196,-643,-207,237.6394,-2.6784,-1.4548,1,0
0000988396,4,0.0460,-0.0013,0.8776,-0.4772,-281,511,1661,567,-803,1939,-473,-544,-184,237.1808,-4.5579,-2.6497,1,0
0000988417,4,0.0651,-0.0106,0.8791,-0.4721,-234,452,1735,523,-171,1923,-696,-380,-191,236.7105,-5.9954,-4.6142,1,0
0000988438,4,0.0802,-0.0236,0.8803,-0.4670,-209,389,1813,211,283,1847,-676,-136,-116,236.2971,-6.8432,-6.7347,1,0
0000988459,4,0.0899,-0.0413,0.8809,-0.4629,-209,389,1813,-79,415,1831,-559,129,-41,235.9848,-6.9037,-9.0411,1,0
0000988480,4,0.0883,-0.0564,0.8812,-0.4609,-209,328,1881,-627,135,1799,-442,439,-9,235.7666,-5.9483,-10.4745,1,1
0000988501,4,0.0776,-0.0751,0.8823,-0.4581,-244,255,1936,-1023,251,1927,-499,810,-23,235.2858,-3.9071,-11.7781,1,1
0000988522,4,0.0601,-0.1002,0.8831,-0.4545,-334,150,1956,-1315,367,1983,-548,1172,37,234.5710,-0.8631,-13.3882,1,1
0000988543,4,0.0366,-0.1270,0.8821,-0.4521,-472,56,1926,-1883,351,1659,-372,1341,167,233.8891,2.8766,-14.9253,1,1
0000988564,4,-0.0028,-0.1551,0.8784,-0.4521,-472,56,1926,-2351,95,1355,-103,1472,301,233.3039,8.3461,-15.8329,1,1
0000988585,4,-0.0389,-0.1751,0.8726,-0.4544,-644,15,1860,-2483,15,943,-119,1531,427,233.1492,13.1256,-16.1085,1,1
0000988606,4,-0.0728,-0.2000,0.8630,-0.4583,-823,-18,1784,-2291,383,479,-444,1478,483,233.2229,17.9964,-17.0247,1,1
0000988627,4,-0.0992,-0.2294,0.8509,-0.4620,-981,-83,1707,-2127,1027,323,-696,1171,340,233.2426,22.3786,-18.8463,1,1
0000988648,4,-0.1200,-0.2623,0.8379,-0.4634,-1091,-127,1661,-2119,1207,91,-527,868,213,232.8014,26.3749,-21.4921,1,1
0000988669,4,-0.1356,-0.2744,0.8308,-0.4648,-1168,-58,1661,-2347,1059,367,4,610,306,232.7319,28.7147,-22.0965,1,1
0000988690,4,-0.1519,-0.2732,0.8257,-0.4695,-1168,-58,1661,-2503,263,863,330,359,461,233.4712,30.4876,-20.9772,1,1
0000988711,4,-0.1655,-0.2661,0.8214,-0.4766,-1216,102,1700,-2419,211,1143,386,200,451,234.7584,31.7068,-19.1714,1,1
0000988732,4,-0.1774,-0.2561,0.8195,-0.4809,-1264,317,1697,-2411,343,1787,614,101,225,235.7717,32.4897,-17.1827,1,1
0000988753,4,-0.1932,-0.2353,0.8232,-0.4791,-1319,555,1591,-2463,119,2275,942,69,51,236.2600,32.9297,-13.9494,1,1
0000988774,4,-0.2087,-0.2130,0.8294,-0.4724,-1376,683,1378,-2427,-211,2547,1088,105,-59,236.1185,33.1965,-10.7553,1,1
0000988795,4,-0.2238,-0.1941,0.8354,-0.4630,-1376,683,1378,-2319,-295,2935,881,200,-180,235.5462,33.6155,-8.0857,1,1
0000988816,4,-0.2381,-0.1830,0.8402,-0.4515,-1398,669,1188,-2063,-47,3259,650,363,-274,234.5139,34.4318,-6.4379,1,1
0000988837,4,-0.2538,-0.1768,0.8436,-0.4389,-1411,612,1056,-1831,199,3159,617,491,-310,233.2553,35.6915,-5.3382,1,1
0000988858,4,-0.2763,-0.1663,0.8482,-0.4201,-1423,568,954,-1455,71,3171,865,492,-364,231.4742,37.4783,-3.6051,1,1
0000988879,4,-0.2960,-0.1518,0.8533,-0.4016,-1440,542,874,-1091,-671,3095,1024,440,-417,229.8505,38.8361,-1.5700,1,1
0000988900,4,-0.3121,-0.1385,0.8586,-0.3824,-1453,512,830,-815,-831,2843,808,309,-476,228.0387,39.9337,0.0661,1,1
0000988921,4,-0.3212,-0.1311,0.8640,-0.3649,-1453,512,830,-359,-655,2523,491,169,-525,226.0047,40.5955,0.5855,1,1
0000988942,4,-0.3244,-0.1284,0.8696,-0.3493,-1464,462,819,-95,-627,2335,248,-9,-532,223.8572,40.8384,0.2472,1,1
0000988963,4,-0.3213,-0.1279,0.8776,-0.3320,-1471,411,832,-39,-599,2207,119,-184,-553,221.1398,40.4611,-0.8341,1,1
0000988984,4,-0.3126,-0.1289,0.8854,-0.3188,-1465,343,872,143,-491,2015,31,-359,-607,218.8309,39.4799,-2.1532,1,1
0000989005,4,-0.2993,-0.1304,0.8945,-0.3055,-1440,275,936,227,-411,1919,-31,-532,-640,216.4597,37.9546,-3.6624,1,1
0000989026,4,-0.2806,-0.1322,0.9044,-0.2929,-1440,275,936,283,-387,1815,-105,-708,-655,214.1776,35.8036,-5.2877,1,1
0000989047,4,-0.2573,-0.1337,0.9149,-0.2808,-1400,199,1015,303,-391,1791,-127,-871,-654,212.0848,33.0844,-6.8681,1,1
0000989068,4,-0.2233,-0.1337,0.9280,-0.2666,-1339,127,1111,291,-471,1775,-124,-1043,-621,209.8539,29.0557,-8.4926,1,1
0000989089,4,-0.1925,-0.1331,0.9378,-0.2565,-1253,59,1223,271,-539,1811,-164,-1121,-586,208.4171,25.4208,-9.6144,1,1
0000989110,4,-0.1608,-0.1326,0.9462,-0.2474,-1165,-3,1321,183,-695,1795,-181,-1133,-537,207.2555,21.7115,-10.6280,1,1
0000989131,4,-0.1294,-0.1316,0.9532,-0.2393,-1054,-52,1415,147,-699,1591,-153,-1094,-457,206.3610,18.0350,-11.4623,1,1
0000989152,4,-0.0926,-0.1292,0.9598,-0.2314,-1054,-52,1415,195,-687,1503,-112,-1013,-357,205.6363,13.7435,-12.1971,1,1
0000989173,4,-0.0665,-0.1263,0.9632,-0.2276,-954,-87,1499,219,-779,1499,-79,-927,-239,205.4096,10.6960,-12.5191,1,1
0000989194,4,-0.0426,-0.1234,0.9652,-0.2265,-854,-110,1569,187,-855,1507,-84,-853,-115,205.5263,7.9431,-12.7682,1,1
0000989215,4,-0.0213,-0.1212,0.9658,-0.2283,-764,-123,1629,163,-911,1531,-109,-761,9,205.9619,5.5394,-13.0220,1,0
0000989236,4,-0.0032,-0.1206,0.9650,-0.2327,-683,-132,1683,71,-855,1551,-151,-571,149,206.6935,3.5674,-13.3953,1,0
0000989257,4,0.0129,-0.1222,0.9626,-0.2413,-683,-132,1683,43,-819,1643,-159,-379,262,207.8978,1.9619,-13.9859,1,0
0000989278,4,0.0202,-0.1250,0.9597,-0.2509,-630,-142,1721,-63,-847,1755,-184,-240,392,209.1332,1.3735,-14.4810,1,0
0000989299,4,0.0249,-0.1290,0.9558,-0.2631,-588,-156,1757,-199,-715,1607,-181,-155,477,210.6250,1.1600,-15.0612,1,0
0000989320,4,0.0259,-0.1322,0.9516,-0.2762,-557,-160,1778,-211,-659,1523,-94,-8,530,212.1855,1.3591,-15.4270,1,0
0000989341,4,0.0212,-0.1354,0.9472,-0.2900,-561,-161,1784,-239,-719,1507,-71,218,577,213.7424,2.2037,-15.6066,1,0
0000989362,4,0.0077,-0.1443,0.9408,-0.3065,-598,-191,1768,-215,-775,1687,-203,483,585,215.4944,4.2359,-16.0780,1,0
0000989383,4,-0.0058,-0.1559,0.9349,-0.3188,-598,-191,1768,-335,-751,1783,-328,570,564,216.7242,6.3322,-16.8360,1,0
0000989404,4,-0.0201,-0.1701,0.9286,-0.3291,-648,-243,1743,-499,-639,1875,-368,640,482,217.6790,8.5855,-17.8310,1,0
0000989425,4,-0.0367,-0.1848,0.9225,-0.3369,-723,-298,1692,-795,-511,1963,-334,764,423,218.2806,11.0810,-18.7998,1,0
0000989446,4,-0.0570,-0.1990,0.9162,-0.3431,-826,-349,1622,-1051,-367,2079,-226,899,423,218.6430,13.9475,-19.5940,1,0
0000989467,4,-0.0852,-0.2133,0.9080,-0.3505,-928,-374,1562,-1379,-511,2047,-129,853,433,219.0551,17.7095,-20.1151,1,0
0000989488,4,-0.1068,-0.2230,0.9013,-0.3558,-1034,-398,1486,-1627,-547,1599,-124,865,386,219.3503,20.5615,-20.3680,1,0
0000989509,4,-0.1295,-0.2364,0.8935,-0.3592,-1034,-398,1486,-1671,-375,1539,-308,981,341,219.3457,23.6600,-21.0705,1,0
0000989530,4,-0.1499,-0.2540,0.8841,-0.3625,-1143,-439,1398,-1807,-123,1571,-460,820,327,219.2094,26.6958,-22.4040,1,0
0000989551,4,-0.1653,-0.2695,0.8749,-0.3669,-1227,-473,1328,-1995,-51,1255,-355,624,333,219.2814,29.1390,-23.6398,1,0
0000989572,4,-0.1801,-0.2778,0.8666,-0.3733,-1279,-476,1291,-1915,-183,1055,-28,397,334,219.7954,31.3078,-23.9669,1,0
0000989593,4,-0.1912,-0.2796,0.8615,-0.3783,-1324,-468,1256,-1835,-663,1011,-4,361,343,220.3753,32.7521,-23.6227,1,0
0000989614,4,-0.2009,-0.2848,0.8549,-0.3842,-1324,-468,1256,-1783,-723,1007,-241,374,347,221.0005,34.2229,-23.7203,1,0
0000989635,4,-0.2086,-0.2960,0.8465,-0.3901,-1368,-478,1214,-1719,-471,1023,-432,431,280,221.4295,35.7474,-24.6389,1,0
0000989656,4,-0.2182,-0.3104,0.8363,-0.3958,-1413,-499,1167,-1783,-463,1127,-311,382,264,221.6745,37.6402,-25.9433,1,0
0000989677,4,-0.2246,-0.3180,0.8292,-0.4011,-1452,-511,1133,-1959,-507,1127,-258,259,291,222.1440,38.8719,-26.4752,1,0
0000989698,4,-0.2292,-0.3244,0.8225,-0.4071,-1477,-518,1104,-1999,-607,1187,-263,211,274,222.7498,39.8739,-26.8892,1,0
0000989719,4,-0.2331,-0.3312,0.8161,-0.4122,-1501,-521,1077,-2003,-535,1239,-278,215,227,223.2316,40.8135,-27.4084,1,0
0000989740,4,-0.2362,-0.3385,0.8099,-0.4167,-1501,-521,1077,-1983,-371,1343,-292,173,193,223.5803,41.6590,-28.0728,1,0
0000989761,4,-0.2388,-0.3458,0.8031,-0.4224,-1524,-532,1051,-1911,-439,1343,-205,112,201,224.1245,42.5126,-28.6780,1,0
0000989782,4,-0.2415,-0.3485,0.7990,-0.4264,-1538,-529,1034,-1743,-595,1279,-81,101,187,224.6312,43.0926,-28.7189,1,0
0000989803,4,-0.2448,-0.3492,0.7961,-0.4294,-1550,-514,1028,-1619,-679,1227,-18,90,163,225.0668,43.6060,-28.5260,1,0
0000989824,4,-0.2475,-0.3495,0.7936,-0.4321,-1565,-507,1018,-1631,-635,1063,-23,53,148,225.5016,44.0211,-28.2879,1,0
0000989845,4,-0.2491,-0.3501,0.7914,-0.4348,-1565,-507,1018,-1527,-647,1167,-81,29,102,225.9080,44.3300,-28.1487,1,0
0000989866,4,-0.2495,-0.3514,0.7895,-0.4370,-1570,-505,1017,-1583,-595,1195,-20,-8,39,226.2082,44.5098,-28.1787,1,0
0000989887,4,-0.2494,-0.3493,0.7901,-0.4377,-1570,-501,1026,-1687,-607,1199,111,-91,25,226.4104,44.4139,-27.8406,1,0
0000989908,4,-0.2484,-0.3439,0.7922,-0.4388,-1565,-488,1046,-1671,-719,1111,173,-179,40,226.8459,44.0542,-27.0490,1,0
0000989929,4,-0.2466,-0.3385,0.7944,-0.4400,-1556,-480,1068,-1563,-675,1187,124,-179,11,227.2881,43.6000,-26.2911,1,0
0000989950,4,-0.2441,-0.3350,0.7962,-0.4408,-1545,-478,1088,-1515,-643,1235,35,-144,-18,227.5546,43.1569,-25.8735,1,0
0000989971,4,-0.2408,-0.3329,0.7978,-0.4412,-1545,-478,1088,-1611,-619,1247,11,-95,-35,227.7053,42.6935,-25.6974,1,0
0000989992,4,-0.2396,-0.3325,0.7986,-0.4407,-1540,-484,1094,-1735,-611,1255,2,-27,-47,227.6329,42.5106,-25.7201,1,0
0000990013,4,-0.2389,-0.3332,0.7992,-0.4396,-1542,-493,1091,-1787,-547,1315,-26,15,-64,227.4173,42.4406,-25.9147,1,0
0000990034,4,-0.2383,-0.3349,0.7995,-0.4380,-1542,-503,1087,-1751,-507,1367,-57,10,-91,227.0876,42.4121,-26.2678,1,0
0000990055,4,-0.2371,-0.3367,0.8001,-0.4361,-1542,-513,1085,-1851,-455,1291,-10,18,-110,226.7085,42.3082,-26.6681,1,0
0000990076,4,-0.2367,-0.3371,0.8020,-0.4325,-1542,-513,1085,-2051,-539,1275,63,-1,-131,226.1126,42.1707,-26.9534,1,0
0000990097,4,-0.2351,-0.3357,0.8047,-0.4295,-1542,-521,1083,-2223,-659,1287,77,-112,-152,225.7055,41.8133,-26.9918,1,0
0000990118,4,-0.2300,-0.3332,0.8083,-0.4274,-1524,-520,1101,-2279,-539,1211,41,-251,-165,225.4812,41.0503,-26.9647,1,0
0000990139,4,-0.2208,-0.3301,0.8124,-0.4270,-1490,-524,1137,-2359,-371,1099,-46,-489,-179,225.5353,39.8432,-26.9301,1,0
0000990160,4,-0.2061,-0.3263,0.8171,-0.4282,-1430,-539,1185,-2347,-311,1163,-103,-683,-206,225.8703,38.0399,-26.9410,1,0
0000990181,4,-0.1817,-0.3200,0.8238,-0.4312,-1346,-549,1253,-2235,-307,1335,-115,-823,-214,226.5908,35.1212,-26.9434,1,0
0000990202,4,-0.1589,-0.3134,0.8291,-0.4348,-1346,-549,1253,-1971,-303,1487,-129,-947,-195,227.4080,32.4100,-26.8636,1,0
0000990223,4,-0.1333,-0.3053,0.8340,-0.4398,-1243,-550,1328,-1751,-179,1415,-137,-1043,-166,228.4714,29.4031,-26.7425,1,0
0000990244,4,-0.1076,-0.2957,0.8383,-0.4452,-1128,-550,1408,-1659,-91,1387,-41,-1045,-140,229.6271,26.3384,-26.5083,1,0
0000990265,4,-0.0784,-0.2805,0.8435,-0.4513,-1004,-530,1484,-1703,-23,1275,74,-973,-107,231.0299,22.6746,-25.8628,1,0
0000990286,4,-0.0593,-0.2670,0.8470,-0.4557,-889,-488,1559,-1727,63,1115,157,-828,-66,232.0410,20.1139,-25.0984,1,0
0000990307,4,-0.0456,-0.2543,0.8498,-0.4595,-799,-423,1622,-1871,271,975,221,-621,-20,232.8711,18.1326,-24.2442,1,0
0000990328,4,-0.0382,-0.2424,0.8518,-0.4628,-799,-423,1622,-2075,627,919,287,-385,47,233.5426,16.8221,-23.2378,1,0
0000990349,4,-0.0375,-0.2328,0.8527,-0.4662,-740,-336,1687,-2015,775,1155,326,-120,133,234.1149,16.3240,-22.1586,1,0
0000990370,4,-0.0464,-0.2242,0.8524,-0.4701,-717,-199,1759,-1863,643,1399,363,206,189,234.6476,16.8482,-20.7218,1,0
0000990391,4,-0.0604,-0.2190,0.8521,-0.4715,-778,-3,1801,-1787,431,1599,439,427,162,234.8043,18.0252,-19.4325,1,0
0000990412,4,-0.0806,-0.2151,0.8522,-0.4700,-947,200,1708,-1643,183,1959,525,695,103,234.5780,19.8562,-18.0111,1,0
0000990433,4,-0.1084,-0.2127,0.8523,-0.4653,-947,200,1708,-1519,-27,2099,622,996,66,233.9696,22.5042,-16.4485,1,0
0000990454,4,-0.1443,-0.2115,0.8516,-0.4575,-1137,304,1482,-1327,-447,2259,719,1366,26,233.0687,26.0536,-14.7184,1,0
0000990475,4,-0.1974,-0.2128,0.8487,-0.4421,-1273,327,1234,-1211,-755,2451,775,1607,-87,231.4415,31.5532,-12.6552,1,1
0000990496,4,-0.2443,-0.2154,0.8454,-0.4234,-1381,331,1001,-1195,-1051,2591,823,1747,-239,229.4660,36.5407,-11.2889,1,1
0000990517,4,-0.2908,-0.2180,0.8412,-0.4004,-1465,321,802,-1403,-1363,2555,849,1719,-344,226.9859,41.5866,-10.3077,1,1
0000990538,4,-0.3343,-0.2189,0.8366,-0.3746,-1533,301,625,-1467,-1535,2495,857,1569,-451,224.1051,46.3410,-9.6537,1,1
0000990559,4,-0.3729,-0.2202,0.8318,-0.3472,-1533,301,625,-1487,-1587,2455,747,1467,-529,220.6892,50.6530,-9.7543,1,1
0000990580,4,-0.4111,-0.2284,0.8251,-0.3132,-1584,248,471,-1411,-1347,2671,395,1239,-668,215.2375,55.2268,-12.0800,1,1
0000990601,4,-0.4329,-0.2379,0.8205,-0.2876,-1618,179,359,-1367,-1211,2775,304,966,-708,210.0531,57.9119,-15.4429,1,1
0000990622,4,-0.4476,-0.2434,0.8195,-0.2624,-1635,108,294,-995,-855,2475,461,632,-717,204.6973,59.4670,-18.8274,1,1
0000990643,4,-0.4553,-0.2428,0.8229,-0.2378,-1643,36,275,-595,-927,2151,573,187,-714,199.8317,59.8670,-21.3819,1,1
0000990664,4,-0.4557,-0.2397,0.8301,-0.2142,-1643,36,275,-187,-1063,2067,536,-71,-765,195.5466,59.2218,-23.3368,1,1
0000990685,4,-0.4469,-0.2374,0.8420,-0.1868,-1641,-45,293,-11,-1167,1987,374,-309,-805,190.9107,57.2806,-25.5253,1,1
0000990706,4,-0.4323,-0.2391,0.8531,-0.1679,-1622,-119,349,131,-1075,2007,194,-561,-847,187.9545,54.8771,-27.1850,1,1
0000990727,4,-0.4105,-0.2433,0.8656,-0.1517,-1593,-210,432,183,-995,2115,56,-839,-864,185.8119,51.6662,-28.5869,1,1
0000990748,4,-0.3811,-0.2486,0.8797,-0.1383,-1535,-303,550,207,-835,2199,-41,-1179,-853,184.5892,47.6730,-29.5295,1,1
0000990769,4,-0.3353,-0.2542,0.8985,-0.1249,-1451,-384,695,203,-771,2407,-43,-1405,-813,184.1455,41.7589,-30.0142,1,1
0000990790,4,-0.2925,-0.2567,0.9137,-0.1171,-1451,-384,695,127,-803,2479,-49,-1617,-736,184.5544,36.4832,-29.8883,1,1
0000990811,4,-0.2452,-0.2575,0.9279,-0.1126,-1345,-454,846,0,-763,2347,-36,-1780,-644,185.5225,30.8636,-29.4919,1,1
0000990832,4,-0.1956,-0.2560,0.9401,-0.1113,-1209,-507,1001,-75,-819,2219,-34,-1847,-498,186.9211,25.1307,-28.9193,1,1
0000990853,4,-0.1460,-0.2536,0.9493,-0.1144,-1054,-539,1142,-119,-743,2007,-71,-1845,-270,188.7456,19.5844,-28.4052,1,1
0000990874,4,-0.0868,-0.2490,0.9566,-0.1239,-908,-548,1259,-131,-451,1727,-38,-1744,-93,191.4854,13.1711,-27.8535,1,1
0000990895,4,-0.0452,-0.2431,0.9595,-0.1349,-908,-548,1259,-303,-287,1723,29,-1554,76,193.8723,8.7671,-27.3715,1,1
0000990916,4,-0.0107,-0.2362,0.9603,-0.1481,-778,-541,1345,-671,-303,1855,76,-1305,210,196.2889,5.1880,-26.8935,1,1
0000990937,4,0.0168,-0.2287,0.9597,-0.1624,-670,-520,1414,-1275,-399,1635,115,-1074,324,198.6406,2.4145,-26.4131,1,1
0000990958,4,0.0370,-0.2209,0.9581,-0.1785,-594,-485,1466,-1495,-331,1255,196,-733,498,201.0037,0.4521,-25.8771,1,1
0000990979,4,0.0491,-0.2113,0.9552,-0.2013,-572,-440,1495,-1563,-375,1071,226,-382,656,203.9064,-0.4998,-25.0508,1,1
0000991000,4,0.0476,-0.2061,0.9519,-0.2216,-592,-387,1498,-1775,-439,995,186,-32,800,206.1976,0.0439,-24.4234,1,1
0000991021,4,0.0374,-0.2045,0.9476,-0.2425,-592,-387,1498,-1991,-379,939,128,304,883,208.3628,1.6196,-23.9435,1,1
0000991042,4,0.0186,-0.2052,0.9426,-0.2629,-658,-336,1485,-2059,-315,891,151,607,927,210.3049,4.1721,-23.4320,1,1
0000991063,4,-0.0077,-0.2060,0.9368,-0.2827,-765,-271,1445,-2239,-427,903,252,956,990,212.0756,7.5239,-22.6342,1,1
0000991084,4,-0.0516,-0.2071,0.9278,-0.3060,-890,-180,1373,-2399,-515,863,302,1223,998,214.0846,12.8549,-21.2086,1,1
0000991105,4,-0.0940,-0.2088,0.9186,-0.3221,-1034,-82,1270,-2399,-583,835,340,1462,981,215.4869,17.8899,-19.8390,1,1
0000991126,4,-0.1412,-0.2114,0.9070,-0.3356,-1034,-82,1270,-2327,-667,859,332,1665,955,216.7705,23.4603,-18.3428,1,1
0000991147,4,-0.1919,-0.2165,0.8924,-0.3463,-1170,11,1126,-2347,-695,907,244,1859,874,217.9326,29.4964,-16.9331,1,1
0000991168,4,-0.2438,-0.2243,0.8747,-0.3538,-1296,99,955,-2399,-615,863,194,1985,800,218.9349,35.8177,-15.7256,1,1
0000991189,4,-0.3113,-0.2359,0.8480,-0.3584,-1407,183,757,-2447,-471,907,206,2122,749,220.0012,44.1858,-14.2795,1,1
0000991210,4,-0.3673,-0.2458,0.8222,-0.3586,-1490,255,528,-2471,-431,975,208,2256,724,220.8570,51.2898,-13.0107,1,1
0000991231,4,-0.4240,-0.2555,0.7924,-0.3565,-1532,331,288,-2551,-483,1007,218,2335,728,222.0323,58.6669,-11.3835,1,1
0000991252,4,-0.4794,-0.2651,0.7586,-0.3527,-1532,331,288,-3099,-443,1059,165,2334,700,223.9446,66.1080,-9.0964,1,0
0000991273,4,-0.5303,-0.2755,0.7228,-0.3470,-1544,397,53,-3887,-383,939,122,2216,558,226.7872,73.2992,-6.0497,1,0
0000991294,4,-0.5868,-0.2854,0.6794,-0.3355,-1527,450,-167,-3791,-643,707,292,1999,472,234.5193,81.4626,2.2778,1,0
0000991315,4,-0.6252,-0.2883,0.6498,-0.3220,-1489,475,-352,-2787,-743,375,423,1688,326,259.4662,86.6183,28.3144,1,0
0000991336,4,-0.6552,-0.2904,0.6260,-0.3075,-1446,487,-487,-2955,-643,11,350,1347,137,354.7419,87.2601,124.7053,1,0
0000991357,4,-0.6770,-0.2947,0.6067,-0.2943,-1446,487,-487,-2839,-547,27,178,1035,0,24.9791,84.3018,155.6800,1,0
0000991378,4,-0.6961,-0.3015,0.5876,-0.2815,-1418,478,-587,-2839,-135,231,110,773,-66,34.8573,81.0508,166.0060,1,0
0000991399,4,-0.7056,-0.3054,0.5785,-0.2723,-1398,461,-651,-2667,19,395,188,500,-103,38.8078,79.3395,170.3598,1,0
0000991420,4,-0.7121,-0.3059,0.5751,-0.2619,-1386,439,-683,-2427,23,583,358,284,-144,41.6138,78.3258,174.0067,1,0
0000991462,4,-0.7181,-0.2983,0.5850,-0.2307,-1413,326,-718,-1915,-191,607,740,-60,-330,49.0179,77.8816,-175.1703,1,0
0000991483,4,-0.7167,-0.2905,0.6000,-0.2046,-1413,326,-718,-1815,-395,527,857,-240,-450,56.9629,78.2401,-164.2485,1,0
0000991504,4,-0.7115,-0.2852,0.6155,-0.1833,-1437,241,-706,-1775,-459,443,767,-382,-536,66.1811,78.6405,-152.7081,1,0
0000991525,4,-0.7016,-0.2832,0.6328,-0.1646,-1469,158,-668,-1743,-251,399,598,-562,-627,78.4427,78.8720,-138.6567,1,0
0000991546,4,-0.6869,-0.2827,0.6530,-0.1478,-1505,64,-600,-1751,-323,447,579,-800,-678,93.7342,78.7138,-121.8956,1,0
0000991567,4,-0.6663,-0.2810,0.6779,-0.1322,-1545,-27,-486,-1995,-459,607,585,-1155,-709,111.5413,77.8780,-102.6342,1,0
0000991588,4,-0.6319,-0.2791,0.7137,-0.1158,-1577,-119,-328,-2275,-703,935,468,-1408,-735,132.9578,75.1612,-79.7481,1,0
0000991609,4,-0.5975,-0.2795,0.7440,-0.1062,-1577,-119,-328,-2275,-603,1183,338,-1584,-761,146.2525,71.5365,-65.8265,1,0
0000991630,4,-0.5589,-0.2807,0.7740,-0.0988,-1595,-209,-146,-1887,-423,1743,251,-1702,-736,155.6653,67.0187,-56.1196,1,0
0000991651,4,-0.5160,-0.2825,0.8029,-0.0966,-1589,-286,47,-1591,-347,1771,47,-1945,-564,163.0876,62.0252,-48.9797,1,0
0000991672,4,-0.4685,-0.2826,0.8311,-0.0998,-1554,-329,264,-1191,-323,1679,77,-2039,-445,169.6307,56.6272,-43.1632,1,0
0000991693,4,-0.4075,-0.2753,0.8640,-0.1080,-1496,-353,483,-627,-435,1591,206,-2090,-214,176.6526,49.7854,-36.8997,1,0
0000991714,4,-0.3580,-0.2655,0.8872,-0.1189,-1496,-353,483,-427,-595,1523,155,-2094,-17,181.6696,44.3018,-32.6403,1,0
0000991735,4,-0.3082,-0.2565,0.9061,-0.1347,-1407,-350,685,-71,-663,1443,-19,-2093,130,186.3354,38.8774,-29.3729,1,0
0000991756,4,-0.2581,-0.2501,0.9203,-0.1545,-1294,-335,874,219,-419,1363,-198,-2064,260,190.7370,33.5296,-27.1633,1,0
0000991777,4,-0.1966,-0.2429,0.9323,-0.1822,-1173,-323,1030,343,-191,1279,-205,-1959,366,195.9137,27.0676,-25.3561,1,0
0000991798,4,-0.1519,-0.2355,0.9376,-0.2058,-1047,-300,1159,343,-35,1343,-146,-1804,475,199.8777,22.4484,-24.2216,1,0
0000991819,4,-0.1117,-0.2262,0.9400,-0.2299,-927,-262,1260,147,23,1563,-60,-1624,581,203.6993,18.3028,-23.1880,1,0
0000991840,4,-0.0777,-0.2153,0.9395,-0.2550,-927,-262,1260,-55,51,1743,-4,-1411,695,207.4499,14.8153,-22.1789,1,0
0000991861,4,-0.0506,-0.2051,0.9362,-0.2811,-831,-212,1336,-319,115,2047,-6,-1089,824,211.1339,12.1195,-21.3220,1,0
0000991882,4,-0.0266,-0.1951,0.9287,-0.3142,-766,-161,1380,-595,263,2319,-42,-803,895,215.5824,9.9034,-20.5452,1,0
0000991903,4,-0.0153,-0.1910,0.9207,-0.3401,-728,-107,1413,-735,339,2643,-99,-522,932,218.9191,9.1016,-20.2218,1,0
0000991924,4,-0.0083,-0.1903,0.9110,-0.3658,-704,-60,1427,-1099,379,2519,-197,-399,982,222.1723,8.8789,-20.1742,1,0
0000991945,4,-0.0046,-0.1906,0.9003,-0.3913,-704,-60,1427,-1283,563,1927,-107,-229,998,225.3727,9.0637,-20.1160,1,0
0000991966,4,-0.0094,-0.1899,0.8894,-0.4156,-703,-3,1436,-1371,519,1823,100,216,1031,228.3503,10.0571,-19.5837,1,0
0000991987,4,-0.0295,-0.1915,0.8751,-0.4435,-737,68,1417,-1651,343,1775,93,556,1036,231.6654,12.7944,-18.4713,1,0
0000992008,4,-0.0523,-0.1985,0.8623,-0.4629,-797,133,1378,-1887,299,1671,-20,826,978,233.9543,15.9031,-17.7899,1,0
0000992029,4,-0.0781,-0.2107,0.8486,-0.4789,-884,178,1315,-2119,339,1555,-104,1017,882,235.8431,19.5271,-17.4615,1,0
0000992050,4,-0.1068,-0.2247,0.8346,-0.4915,-979,216,1232,-2591,299,1155,-65,1139,814,237.3935,23.5199,-17.1351,1,0
0000992071,4,-0.1380,-0.2386,0.8201,-0.5014,-979,216,1232,-3019,247,767,24,1286,758,238.7566,27.7559,-16.6056,1,0
0000992092,4,-0.1817,-0.2560,0.8009,-0.5099,-1075,265,1132,-3187,191,627,83,1402,714,240.2280,33.5132,-15.6436,1,0
0000992113,4,-0.2187,-0.2695,0.7844,-0.5140,-1168,321,1017,-3307,11,479,137,1440,700,241.3676,38.3299,-14.6190,1,0
0000992134,4,-0.2552,-0.2815,0.7669,-0.5171,-1243,376,892,-3291,-219,423,147,1394,693,242.7222,43.0507,-13.2838,1,0
0000992155,4,-0.2895,-0.2925,0.7491,-0.5192,-1305,431,772,-3271,-231,435,154,1284,624,244.2648,47.5088,-11.7566,1,0
0000992176,4,-0.3216,-0.3016,0.7318,-0.5197,-1305,431,772,-3151,-563,635,207,1219,574,245.9420,51.6417,-9.9371,1,0
0000992197,4,-0.3592,-0.3111,0.7109,-0.5184,-1347,481,659,-2979,-971,675,182,1146,516,248.2928,56.4467,-7.2684,1,0
0000992218,4,-0.3858,-0.3193,0.6949,-0.5161,-1379,523,556,-2927,-1047,599,117,1079,422,250.1963,59.9652,-5.2217,1,0
0000992239,4,-0.4088,-0.3282,0.6797,-0.5130,-1405,549,461,-2811,-1007,559,51,993,321,251.9919,63.1846,-3.4062,1,0
0000992260,4,-0.4275,-0.3379,0.6657,-0.5097,-1423,576,387,-2667,-1003,563,-40,867,255,253.5806,66.0293,-1.9924,1,0
0000992281,4,-0.4449,-0.3504,0.6498,-0.5070,-1444,580,326,-2567,-943,563,-151,709,162,255.4550,68.9840,-0.6805,1,0
0000992302,4,-0.4543,-0.3616,0.6392,-0.5043,-1444,580,326,-2411,-615,591,-204,620,30,256.0139,70.9857,-0.7314,1,0
0000992323,4,-0.4605,-0.3737,0.6313,-0.4997,-1457,569,281,-2315,-287,619,-185,548,-137,255.0739,72.7390,-2.2389,1,0
0000992344,4,-0.4651,-0.3853,0.6272,-0.4918,-1479,546,241,-2259,135,647,-49,486,-315,252.0470,74.2386,-5.4808,1,0
0000992365,4,-0.4696,-0.3953,0.6280,-0.4784,-1510,493,187,-2271,351,707,260,469,-575,246.2047,75.4658,-10.8348,1,0
0000992386,4,-0.4768,-0.4053,0.6363,-0.4511,-1550,418,121,-2123,411,911,534,504,-795,233.6213,76.5230,-21.5262,1,0
0000992407,4,-0.4837,-0.4109,0.6481,-0.4209,-1579,312,52,-2087,423,983,808,507,-1000,219.8107,76.6232,-32.8172,1,0
0000992428,4,-0.4907,-0.4134,0.6644,-0.3833,-1579,312,52,-1967,399,991,1092,490,-1182,204.7658,75.6783,-44.4178,1,0
0000992449,4,-0.4970,-0.4120,0.6845,-0.3386,-1611,181,-18,-1655,247,987,1360,439,-1333,191.0400,73.6287,-53.8068,1,0
0000992470,4,-0.5016,-0.4056,0.7077,-0.2882,-1626,21,-67,-1463,-23,991,1609,353,-1440,180.1806,70.6893,-59.5057,1,0
0000992491,4,-0.5022,-0.3916,0.7389,-0.2203,-1623,-147,-80,-1471,-379,987,1736,171,-1520,170.3441,66.1581,-62.1396,1,0
0000992512,4,-0.4967,-0.3779,0.7634,-0.1660,-1597,-319,-52,-1555,-627,1087,1689,28,-1526,164.8720,62.1225,-61.8206,1,0
0000992533,4,-0.4869,-0.3634,0.7859,-0.1150,-1597,-319,-52,-1563,-699,1119,1581,-136,-1423,160.8756,58.0864,-60.3237,1,0
0000992554,4,-0.4716,-0.3475,0.8074,-0.0704,-1565,-470,11,-1503,-779,1187,1464,-399,-1257,158.5601,54.1384,-57.6236,1,0
0000992575,4,-0.4504,-0.3300,0.8289,-0.0335,-1518,-577,123,-1415,-979,1195,1335,-740,-1007,157.7840,50.2513,-53.9434,1,0
0000992596,4,-0.4176,-0.3080,0.8549,0.0009,-1467,-645,269,-1191,-1279,1271,1122,-952,-805,158.3299,45.5123,-48.8026,1,0
0000992617,4,-0.3870,-0.2953,0.8733,0.0179,-1409,-696,412,-947,-1355,1335,723,-1127,-622,159.6368,41.7183,-45.1887,1,0
0000992638,4,-0.3543,-0.2905,0.8885,0.0258,-1339,-724,539,-879,-1183,1459,306,-1226,-485,161.3954,37.9238,-42.6561,1,0
0000992659,4,-0.3207,-0.2923,0.9005,0.0271,-1339,-724,539,-871,-879,1707,34,-1287,-385,163.3987,34.1810,-41.1057,1,0
0000992680,4,-0.2856,-0.2970,0.9108,0.0244,-1265,-759,661,-651,-659,1859,-85,-1372,-301,165.6310,30.3879,-40.0475,1,0
0000992701,4,-0.2396,-0.3021,0.9225,0.0170,-1176,-787,774,-383,-551,1863,-10,-1453,-201,168.7374,25.5780,-38.8249,1,0
0000992722,4,-0.2016,-0.3013,0.9319,0.0090,-1076,-789,894,59,-547,1803,125,-1498,-86,171.4393,21.7337,-37.4752,1,0
0000992743,4,-0.1630,-0.2969,0.9409,-0.0017,-973,-773,1012,291,-563,1771,197,-1529,32,174.3564,17.9263,-35.9179,1,0
0000992764,4,-0.1253,-0.2908,0.9484,-0.0152,-973,-773,1012,363,-595,1747,220,-1519,143,177.3927,14.2682,-34.4161,1,0
0000992785,4,-0.0880,-0.2840,0.9543,-0.0302,-869,-750,1119,459,-639,1603,186,-1497,194,180.4479,10.6630,-33.1065,1,0
0000992806,4,-0.0441,-0.2771,0.9585,-0.0508,-758,-728,1207,567,-503,1519,120,-1408,256,184.2159,6.4680,-32.0108,1,0
0000992827,4,-0.0115,-0.2715,0.9600,-0.0682,-652,-701,1281,619,-399,1567,135,-1313,338,187.1706,3.3919,-31.3675,1,0
0000992848,4,0.0180,-0.2640,0.9603,-0.0878,-563,-662,1344,571,-347,1575,223,-1245,472,190.2622,0.6778,-30.6838,1,0
0000992869,4,0.0441,-0.2532,0.9600,-0.1108,-485,-602,1405,471,-387,1551,415,-1151,653,193.6019,-1.6427,-29.7408,1,0
0000992890,4,0.0714,-0.2348,0.9587,-0.1438,-485,-602,1405,379,-487,1567,520,-1025,805,198.0640,-3.9760,-28.1507,1,0
0000992911,4,0.0875,-0.2190,0.9562,-0.1734,-417,-525,1462,227,-627,1679,537,-874,938,201.8026,-5.2471,-26.8096,1,0
0000992932,4,0.0994,-0.2045,0.9520,-0.2049,-374,-445,1501,39,-735,1763,491,-739,1058,205.6676,-6.0509,-25.6242,1,0
0000992953,4,0.1071,-0.1923,0.9460,-0.2379,-345,-373,1534,-91,-715,1755,428,-590,1155,209.6335,-6.3816,-24.6737,1,0
0000992974,4,0.1104,-0.1825,0.9384,-0.2719,-334,-298,1560,-263,-743,1839,370,-376,1261,213.6345,-6.1997,-23.8839,1,0
0000992995,4,0.1094,-0.1740,0.9265,-0.3151,-334,-298,1560,-519,-851,1895,267,-271,1307,218.6581,-5.3391,-23.1422,1,0
0000993016,4,0.1072,-0.1708,0.9153,-0.3486,-338,-243,1576,-651,-815,1803,168,-201,1284,222.5944,-4.4286,-22.8627,1,0
0000993037,4,0.1033,-0.1695,0.9034,-0.3801,-348,-193,1582,-783,-635,1603,135,-88,1236,226.2962,-3.3127,-22.6655,1,0
0000993058,4,0.0951,-0.1702,0.8912,-0.4096,-377,-145,1592,-1035,-627,1595,121,136,1224,229.7042,-1.7233,-22.4219,1,0
0000993079,4,0.0811,-0.1742,0.8784,-0.4375,-435,-99,1583,-1459,-711,1587,73,464,1239,232.8402,0.5683,-22.1489,1,0
0000993100,4,0.0566,-0.1846,0.8615,-0.4696,-522,-59,1559,-1899,-655,1471,11,669,1183,236.3539,4.3567,-21.8588,1,0
0000993121,4,0.0336,-0.1968,0.8484,-0.4903,-522,-59,1559,-2195,-575,1367,-33,848,1004,238.5481,7.8177,-21.7368,1,0
0000993142,4,0.0079,-0.2103,0.8371,-0.5050,-629,-23,1522,-2527,-595,1051,0,992,815,240.0072,11.4928,-21.5548,1,0
0000993163,4,-0.0204,-0.2236,0.8269,-0.5155,-744,21,1467,-2727,-575,687,115,1079,717,240.9973,15.3252,-21.1962,1,0
0000993184,4,-0.0526,-0.2342,0.8173,-0.5238,-862,83,1395,-2967,-615,579,276,1211,704,241.8096,19.3444,-20.3271,1,0
0000993205,4,-0.0974,-0.2475,0.8040,-0.5319,-977,154,1302,-3135,-735,519,293,1320,688,242.7715,24.8232,-18.9210,1,0
0000993226,4,-0.1338,-0.2596,0.7923,-0.5357,-977,154,1302,-3319,-803,531,197,1348,606,243.4033,29.3480,-17.9028,1,0
0000993247,4,-0.1668,-0.2742,0.7801,-0.5372,-1086,215,1199,-3255,-735,567,87,1288,500,243.8040,33.6943,-17.3791,1,0
0000993268,4,-0.1964,-0.2885,0.7681,-0.5368,-1176,258,1091,-3003,-507,483,89,1174,398,244.0258,37.6952,-17.0782,1,0
0000993289,4,-0.2245,-0.3006,0.7572,-0.5347,-1239,297,992,-2847,-391,555,149,1139,334,244.1094,41.4089,-16.6769,1,0
0000993310,4,-0.2589,-0.3151,0.7441,-0.5291,-1298,333,884,-2803,-367,743,140,1157,263,243.8945,45.9497,-16.2778,1,0
0000993331,4,-0.2856,-0.3277,0.7337,-0.5222,-1355,347,771,-2715,-267,871,116,1191,167,243.2830,49.5867,-16.3609,1,0
0000993352,4,-0.3123,-0.3407,0.7241,-0.5120,-1355,347,771,-2451,-3,1007,202,1219,53,242.0273,53.2298,-16.8607,1,0
0000993373,4,-0.3406,-0.3509,0.7166,-0.4973,-1406,360,651,-2331,115,1063,499,1252,-90,240.0122,56.8463,-17.4729,1,0
0000993394,4,-0.3791,-0.3584,0.7114,-0.4709,-1457,365,514,-2315,147,1211,757,1291,-232,235.9435,61.2765,-18.5599,1,0
0000993415,4,-0.4122,-0.3611,0.7098,-0.4426,-1504,353,358,-2447,99,1359,964,1354,-383,230.9163,64.7940,-20.3153,1,0
0000993436,4,-0.4463,-0.3620,0.7097,-0.4075,-1547,312,186,-2511,115,1467,1155,1423,-541,223.4493,68.2084,-23.8528,1,0
0000993457,4,-0.4810,-0.3605,0.7106,-0.3657,-1570,247,8,-2543,147,1587,1366,1475,-685,212.6406,71.3140,-30.0743,1,0
0000993478,4,-0.5157,-0.3554,0.7120,-0.3175,-1570,247,8,-2567,35,1615,1615,1472,-789,197.7916,73.7475,-39.6581,1,0
0000993499,4,-0.5561,-0.3438,0.7137,-0.2514,-1579,152,-160,-2551,-51,1587,1722,1378,-841,174.7278,75.1531,-55.5024,1,0
0000993520,4,-0.5828,-0.3311,0.7155,-0.1969,-1577,35,-304,-2231,-243,1399,1764,1191,-875,156.8250,74.6622,-67.4369,1,0
0000993541,4,-0.6027,-0.3161,0.7185,-0.1434,-1556,-93,-393,-2003,-359,1079,1739,907,-887,143.0423,73.0868,-75.3176,1,0
0000993562,4,-0.6140,-0.2999,0.7242,-0.0925,-1536,-229,-422,-1963,-439,919,1705,584,-902,134.3295,70.8787,-78.3556,1,0
0000993583,4,-0.6172,-0.2823,0.7331,-0.0439,-1536,-229,-422,-1915,-375,731,1710,258,-915,129.4956,68.3901,-77.6645,1,0
0000993604,4,-0.6106,-0.2586,0.7484,0.0146,-1517,-374,-400,-1699,-407,819,1729,-111,-918,126.9572,65.0058,-73.3999,1,0
0000993625,4,-0.5967,-0.2393,0.7637,0.0579,-1494,-496,-319,-1567,-487,887,1647,-418,-890,126.9218,62.0984,-68.2707,1,0
0000993646,4,-0.5751,-0.2219,0.7814,0.0971,-1474,-606,-191,-1595,-535,1135,1538,-727,-885,128.1614,58.8334,-62.3571,1,0
0000993667,4,-0.5468,-0.2057,0.8007,0.1327,-1440,-698,-27,-1723,-891,1371,1480,-982,-835,129.9858,55.1842,-56.2219,1,0
0000993688,4,-0.5127,-0.1920,0.8208,0.1629,-1440,-698,-27,-1679,-1175,1579,1243,-1211,-752,132.2157,51.1782,-50.2870,1,0
0000993709,4,-0.4642,-0.1864,0.8452,0.1884,-1393,-760,153,-1627,-1155,2031,675,-1518,-669,135.3821,45.5960,-44.4466,1,0
0000993730,4,-0.4204,-0.1918,0.8639,0.2003,-1326,-811,336,-1619,-1011,2295,383,-1738,-631,138.1419,40.5057,-41.1018,1,0
0000993751,4,-0.3726,-0.2000,0.8817,0.2093,-1237,-853,518,-1511,-1079,2347,379,-1867,-625,140.7796,34.9888,-38.3712,1,0
0000993772,4,-0.3213,-0.2071,0.8983,0.2167,-1115,-886,694,-1039,-1035,2367,346,-1967,-553,143.2505,29.1721,-35.8404,1,0
0000993793,4,-0.2688,-0.2159,0.9125,0.2203,-970,-909,844,-727,-927,2379,190,-1984,-473,145.6624,23.2951,-33.9169,1,0
0000993814,4,-0.2053,-0.2339,0.9250,0.2179,-970,-909,844,-451,-779,2487,-132,-1973,-372,148.6888,16.1317,-32.9311,1,0
0000993835,4,-0.1551,-0.2526,0.9311,0.2128,-822,-946,955,-143,-547,2415,-279,-1985,-333,151.1490,10.4490,-33.0527,1,0
0000993856,4,-0.1050,-0.2719,0.9343,0.2052,-658,-982,1034,47,-375,2295,-271,-1995,-272,153.7534,4.8573,-33.5842,1,0
0000993877,4,-0.0547,-0.2883,0.9358,0.1954,-483,-1006,1101,235,-251,2231,-203,-1990,-171,156.5961,-0.5948,-34.1264,1,0
0000993898,4,0.0066,-0.3065,0.9348,0.1793,-320,-1029,1141,295,-291,2127,-201,-1941,-63,160.5036,-7.0201,-35.1017,1,0
0000993919,4,0.0537,-0.3203,0.9315,0.1637,-159,-1049,1155,275,-115,2079,-190,-1913,20,163.9523,-11.8236,-36.2774,1,0
0000993940,4,0.0991,-0.3314,0.9269,0.1458,-159,-1049,1155,227,-59,2039,-115,-1859,133,167.6984,-16.2828,-37.5873,1,0
0000993961,4,0.1419,-0.3406,0.9211,0.1243,-12,-1058,1171,167,-7,1803,-52,-1806,266,171.8948,-20.2489,-39.1328,1,0
0000993982,4,0.1823,-0.3472,0.9145,0.0999,113,-1070,1164,123,195,1611,33,-1731,424,176.4821,-23.7527,-40.8429,1,0
0000994003,4,0.2280,-0.3521,0.9054,0.0653,216,-1076,1156,123,327,1595,141,-1629,558,182.7335,-27.3148,-43.1593,1,0
0000994024,4,0.2600,-0.3532,0.8981,0.0334,296,-1068,1154,3,427,1535,261,-1542,702,188.1636,-29.3831,-45.0860,1,0
0000994045,4,0.2885,-0.3501,0.8912,-0.0012,296,-1068,1154,-99,467,1459,443,-1428,804,193.7530,-30.8869,-46.7080,1,0
0000994066,4,0.3114,-0.3430,0.8854,-0.0382,351,-1056,1172,-171,351,1379,617,-1244,892,199.2988,-31.6807,-47.8815,1,0
0000994087,4,0.3286,-0.3328,0.8806,-0.0759,382,-1029,1202,-215,375,1375,712,-1049,960,204.5151,-31.8828,-48.5104,1,0
0000994108,4,0.3417,-0.3177,0.8758,-0.1237,388,-991,1249,-283,403,1423,839,-810,1040,210.5172,-31.3259,-48.6191,1,0
0000994129,4,0.3451,-0.3035,0.8730,-0.1636,366,-931,1314,-431,267,1475,990,-613,1137,214.9487,-30.2153,-48.0542,1,0
0000994150,4,0.3410,-0.2869,0.8714,-0.2050,317,-853,1389,-679,71,1627,1125,-352,1241,218.9816,-28.4729,-46.7081,1,0
0000994171,4,0.3280,-0.2708,0.8709,-0.2461,317,-853,1389,-831,-15,1811,1147,-21,1296,222.4183,-25.9788,-44.7797,1,0
0000994192,4,0.3070,-0.2566,0.8711,-0.2847,229,-762,1462,-1043,-175,1935,1135,342,1278,225.1845,-22.8754,-42.4530,1,0
0000994213,4,0.2705,-0.2399,0.8726,-0.3284,110,-638,1529,-1371,-459,2051,1195,631,1223,227.7705,-18.3305,-38.9229,1,0
0000994234,4,0.2328,-0.2270,0.8748,-0.3592,-37,-501,1572,-1651,-747,2015,1234,932,1168,229.2038,-14.1407,-35.5939,1,0
0000994255,4,0.1872,-0.2155,0.8769,-0.3867,-210,-349,1584,-2047,-1247,1895,1280,1243,1153,230.2659,-9.2968,-31.9835,1,0
0000994276,4,0.1334,-0.2063,0.8779,-0.4111,-210,-349,1584,-2431,-1851,1775,1181,1643,1147,231.1179,-3.7066,-28.2208,1,0
0000994297,4,0.0737,-0.2041,0.8759,-0.4310,-417,-195,1556,-2703,-2039,1719,953,1967,1090,231.8055,2.6831,-24.9367,1,0
0000994318,4,-0.0073,-0.2118,0.8680,-0.4491,-649,-60,1471,-3083,-2271,1675,771,2218,1093,232.4694,11.7048,-21.6463,1,0
0000994339,4,-0.0742,-0.2235,0.8555,-0.4612,-877,56,1342,-3755,-2479,1247,554,2302,1142,233.2884,19.4601,-19.4519,1,0
0000994360,4,-0.1368,-0.2416,0.8377,-0.4702,-1068,147,1179,-3839,-2335,1079,224,2293,1007,234.2076,27.1608,-18.0838,1,0
0000994381,4,-0.1932,-0.2659,0.8165,-0.4747,-1227,196,998,-3655,-1895,679,-88,2248,840,234.7770,34.6047,-17.7376,1,0
0000994402,4,-0.2537,-0.3033,0.7858,-0.4756,-1227,196,998,-3583,-1419,607,-421,2125,645,234.7912,43.4074,-18.9040,1,0
0000994423,4,-0.2933,-0.3346,0.7605,-0.4730,-1352,215,819,-3491,-995,467,-435,1904,460,233.9572,49.6909,-20.9770,1,0
0000994444,4,-0.3289,-0.3577,0.7398,-0.4653,-1437,231,658,-3139,-607,639,-16,1660,274,232.2654,55.0407,-22.9321,1,0
0000994465,4,-0.3644,-0.3687,0.7269,-0.4505,-1493,256,506,-2871,-779,915,512,1458,93,229.6104,59.5349,-24.1796,1,0
0000994486,4,-0.3984,-0.3718,0.7200,-0.4296,-1538,260,363,-2771,-847,987,754,1281,-143,225.8175,63.2806,-25.4342,1,0
0000994507,4,-0.4356,-0.3742,0.7155,-0.3980,-1538,260,363,-2527,-747,1111,761,1206,-329,218.7133,67.0867,-28.9925,1,0
0000994528,4,-0.4615,-0.3764,0.7138,-0.3686,-1572,236,229,-2251,-515,1227,809,1150,-491,210.5856,69.4388,-34.1548,1,0
0000994549,4,-0.4849,-0.3769,0.7143,-0.3354,-1595,190,108,-2095,-455,1191,955,1053,-615,200.4566,71.0242,-40.9573,1,0
0000994570,4,-0.5061,-0.3738,0.7177,-0.2984,-1613,116,-7,-1923,-455,1183,1132,967,-712,189.1542,71.7187,-48.4053,1,0
0000994591,4,-0.5252,-0.3679,0.7227,-0.2580,-1623,32,-109,-1819,-415,1235,1248,888,-788,177.5395,71.6120,-55.7371,1,0
0000994612,4,-0.5446,-0.3574,0.7308,-0.2041,-1616,-73,-184,-1739,-503,1303,1366,755,-891,164.3148,70.3593,-63.2071,1,0
0000994633,4,-0.5554,-0.3464,0.7391,-0.1590,-1616,-73,-184,-1519,-611,1343,1433,601,-943,155.7516,68.6140,-66.9017,1,0
0000994654,4,-0.5614,-0.3334,0.7487,-0.1141,-1608,-195,-228,-1295,-627,1355,1469,387,-947,149.3562,66.4687,-68.3650,1,0
0000994675,4,-0.5611,-0.3181,0.7609,-0.0712,-1590,-315,-228,-1175,-723,1431,1472,118,-923,145.3899,64.0424,-67.4352,1,0
0000994696,4,-0.5540,-0.3018,0.7752,-0.0313,-1568,-424,-178,-1127,-1107,1647,1438,-265,-905,143.3458,61.3915,-64.7903,1,0
0000994717,4,-0.5340,-0.2817,0.7971,0.0134,-1543,-524,-72,-1055,-1163,1807,1303,-590,-890,143.1132,57.5330,-59.6827,1,0
0000994738,4,-0.5095,-0.2689,0.8162,0.0438,-1507,-618,63,-1071,-1115,1879,1138,-868,-887,144.0823,53.9128,-55.1880,1,0
0000994759,4,-0.4794,-0.2584,0.8357,0.0704,-1507,-618,63,-1039,-1107,2079,1040,-1088,-882,145.4409,49.8948,-50.8344,1,0
0000994780,4,-0.4440,-0.2495,0.8555,0.0940,-1453,-694,222,-967,-1327,2239,881,-1294,-815,146.9725,45.4575,-46.6767,1,0
0000994801,4,-0.4053,-0.2436,0.8739,0.1122,-1378,-743,392,-947,-1283,2283,721,-1422,-752,148.6519,40.8217,-43.0776,1,0
0000994822,4,-0.3514,-0.2417,0.8954,0.1276,-1289,-791,558,-831,-1171,2359,478,-1618,-648,151.0527,34.5895,-39.3985,1,0
0000994843,4,-0.3053,-0.2433,0.9108,0.1345,-1169,-819,716,-719,-1127,2351,342,-1718,-551,153.1456,29.3846,-37.0730,1,0
0000994864,4,-0.2583,-0.2469,0.9239,0.1367,-1169,-819,716,-419,-1047,2363,202,-1780,-429,155.3751,24.1918,-35.2746,1,0
0000994885,4,-0.2098,-0.2531,0.9348,0.1341,-1047,-840,859,-115,-891,2303,21,-1893,-291,157.8326,18.9246,-34.0432,1,0
0000994906,4,-0.1598,-0.2611,0.9435,0.1273,-904,-857,980,103,-847,2195,-12,-1968,-200,160.5469,13.5899,-33.2756,1,0
0000994927,4,-0.0955,-0.2704,0.9511,0.1150,-748,-873,1090,355,-899,2043,-41,-1993,-121,164.2021,6.8596,-32.6939,1,0
0000994948,4,-0.0442,-0.2783,0.9540,0.1023,-576,-881,1172,427,-871,1887,-109,-1992,-43,167.3009,1.5662,-32.7002,1,0
0000994969,4,0.0058,-0.2872,0.9539,0.0872,-417,-899,1222,471,-751,1847,-170,-1969,28,170.6003,-3.5068,-33.2205,1,0
0000994990,4,0.0545,-0.2957,0.9511,0.0707,-417,-899,1222,567,-611,1835,-169,-1907,106,174.0712,-8.3613,-34.1127,1,0
0000995011,4,0.1121,-0.3040,0.9448,0.0487,-257,-912,1254,483,-375,1979,-103,-1821,134,178.5961,-13.9705,-35.5003,1,0
0000995032,4,0.1545,-0.3073,0.9385,0.0308,-105,-920,1275,331,-203,2143,12,-1686,162,182.2359,-18.0009,-36.6160,1,0
0000995053,4,0.1936,-0.3052,0.9323,0.0114,27,-910,1295,127,-163,1855,248,-1629,267,185.9809,-21.5952,-37.3893,1,0
0000995074,4,0.2320,-0.2967,0.9263,-0.0130,150,-872,1320,131,59,1347,517,-1674,396,190.2813,-24.9601,-37.8094,1,0
0000995095,4,0.2680,-0.2824,0.9202,-0.0410,150,-872,1320,319,251,1275,735,-1533,534,194.8925,-28.0368,-37.8604,1,0
0000995116,4,0.3044,-0.2620,0.9123,-0.0798,266,-819,1354,79,75,1419,759,-1301,700,200.8290,-30.9051,-37.8617,1,0
0000995137,4,0.3249,-0.2480,0.9057,-0.1124,340,-768,1390,-343,131,1623,701,-1043,802,205.5306,-32.1989,-38.1139,1,0
0000995158,4,0.3387,-0.2349,0.8996,-0.1442,380,-733,1417,-419,403,1731,735,-817,841,209.8697,-32.7930,-38.2475,1,0
0000995179,4,0.3464,-0.2197,0.8946,-0.1773,399,-663,1471,-555,567,1719,932,-625,906,213.9571,-32.8147,-37.8767,1,0
0000995200,4,0.3465,-0.1996,0.8915,-0.2129,381,-560,1540,-675,283,1647,1264,-281,1017,217.7438,-32.1935,-36.5121,1,0
0000995221,4,0.3325,-0.1714,0.8902,-0.2601,381,-560,1540,-727,63,1699,1370,76,1094,221.8820,-30.1871,-33.5873,1,0
0000995242,4,0.3107,-0.1512,0.8901,-0.2973,318,-433,1612,-759,-215,1763,1329,411,1144,224.6803,-27.5985,-30.8094,1,0
0000995263,4,0.2817,-0.1354,0.8897,-0.3326,215,-294,1664,-823,-439,1883,1227,681,1163,227.1449,-24.2843,-28.0318,1,0
0000995284,4,0.2474,-0.1241,0.8888,-0.3654,86,-153,1696,-911,-535,1903,1097,919,1149,229.3380,-20.4283,-25.3657,1,0
0000995305,4,0.2076,-0.1182,0.8872,-0.3946,-76,-26,1694,-1119,-587,2015,946,1281,1075,231.2050,-15.9741,-22.8638,1,0
0000995326,4,0.1497,-0.1188,0.8850,-0.4247,-76,-26,1694,-1467,-615,2303,765,1569,982,232.9374,-9.4349,-20.0035,1,0
0000995347,4,0.1004,-0.1259,0.8814,-0.4441,-263,82,1657,-1839,-747,2411,582,1651,955,234.0749,-3.7320,-18.1662,1,0
0000995368,4,0.0534,-0.1351,0.8748,-0.4622,-441,175,1590,-2187,-827,2351,502,1560,960,235.4309,1.8030,-16.6132,1,0
0000995389,4,0.0086,-0.1447,0.8659,-0.4788,-599,256,1506,-2063,-927,2131,398,1543,913,236.9337,7.1043,-15.1150,1,0
0000995410,4,-0.0355,-0.1570,0.8553,-0.4926,-742,317,1405,-1927,-1083,1971,284,1598,842,238.3633,12.4412,-13.8372,1,0
0000995431,4,-0.0881,-0.1797,0.8400,-0.5043,-873,350,1298,-1939,-1059,1707,19,1670,683,239.7354,19.2276,-13.0406,1,0
0000995452,4,-0.1293,-0.2018,0.8263,-0.5097,-873,350,1298,-2083,-763,1455,-21,1765,620,240.5114,24.8002,-12.8301,1,0
0000995473,4,-0.1742,-0.2233,0.8108,-0.5122,-1011,382,1168,-2415,-451,1263,127,1905,604,241.1585,30.7493,-12.3424,1,0
0000995494,4,-0.2223,-0.2430,0.7936,-0.5116,-1140,428,1003,-2747,-731,1171,208,1967,544,241.7887,36.9779,-11.4270,1,0
0000995515,4,-0.2802,-0.2665,0.7711,-0.5058,-1245,468,840,-2895,-831,1063,212,1875,392,242.2893,44.5614,-10.3091,1,0
0000995536,4,-0.3221,-0.2844,0.7546,-0.4960,-1331,484,669,-3027,-655,883,223,1791,186,242.0075,50.1904,-9.8659,1,0
0000995557,4,-0.3601,-0.3021,0.7400,-0.4811,-1402,475,505,-2899,-259,763,239,1699,-50,240.6687,55.4473,-10.2220,1,0
0000995578,4,-0.3935,-0.3187,0.7283,-0.4617,-1402,475,505,-2635,-247,695,307,1526,-226,237.9630,60.1584,-11.6873,1,0
0000995599,4,-0.4226,-0.3304,0.7203,-0.4398,-1455,452,358,-2551,-259,619,525,1219,-334,234.1578,64.0811,-13.7979,1,0
0000995620,4,-0.4532,-0.3368,0.7165,-0.4096,-1492,418,238,-2495,-163,699,699,970,-427,227.9824,67.7230,-17.1004,1,0
0000995641,4,-0.4734,-0.3366,0.7182,-0.3830,-1520,364,136,-2579,-155,875,837,780,-517,221.8416,69.7035,-20.4125,1,0
0000995662,4,-0.4905,-0.3339,0.7227,-0.3543,-1540,302,55,-2607,-127,999,904,666,-605,214.5725,71.0238,-24.5564,1,0
0000995683,4,-0.5050,-0.3308,0.7285,-0.3239,-1540,302,55,-2567,15,1135,909,608,-696,206.1992,71.8106,-29.7134,1,0
0000995704,4,-0.5173,-0.3281,0.7347,-0.2915,-1559,225,-9,-2491,95,1219,937,572,-812,196.7840,72.0631,-35.8823,1,0
0000995725,4,-0.5306,-0.3239,0.7431,-0.2476,-1574,131,-70,-2311,111,1183,1013,548,-884,184.4182,71.6299,-43.9118,1,0
0000995746,4,-0.5395,-0.3188,0.7507,-0.2094,-1581,26,-126,-2075,239,1043,1120,498,-964,174.8720,70.6313,-49.6559,1,0
0000995767,4,-0.5464,-0.3115,0.7592,-0.1674,-1577,-90,-164,-1895,303,1055,1276,445,-1042,166.0467,69.0581,-54.2342,1,0
0000995788,4,-0.5505,-0.3008,0.7690,-0.1233,-1576,-215,-175,-1723,-11,1131,1360,313,-1057,158.7225,67.0404,-56.9095,1,0
0000995809,4,-0.5492,-0.2898,0.7797,-0.0806,-1576,-215,-175,-1699,-3,1111,1282,15,-1081,153.3498,64.5694,-57.7960,1,0
0000995830,4,-0.5381,-0.2756,0.7960,-0.0300,-1552,-339,-142,-1707,15,1183,1280,-251,-1092,149.2988,60.8245,-56.5029,1,0
0000995851,4,-0.5208,-0.2628,0.8122,0.0075,-1525,-452,-55,-1707,-111,1403,1275,-589,-1032,147.9817,57.3580,-53.7041,1,0
0000995872,4,-0.4954,-0.2498,0.8310,0.0401,-1498,-552,76,-1851,-191,1835,1194,-957,-950,148.1792,53.4480,-49.7883,1,0
0000995893,4,-0.4615,-0.2373,0.8521,0.0678,-1441,-626,254,-1839,-207,1971,1120,-1332,-903,149.3573,48.9602,-45.3459,1,0
0000995914,4,-0.4211,-0.2250,0.8737,0.0926,-1441,-626,254,-1695,-575,2151,1092,-1521,-829,150.7763,43.9655,-40.9025,1,0
0000995935,4,-0.3649,-0.2116,0.8992,0.1165,-1363,-678,448,-1387,-919,2399,827,-1662,-684,152.7530,37.3740,-35.8521,1,0
0000995956,4,-0.3171,-0.2083,0.9166,0.1264,-1268,-707,633,-931,-959,2459,461,-1803,-539,154.6210,31.9076,-32.9769,1,0
0000995977,4,-0.2672,-0.2094,0.9316,0.1301,-1150,-728,804,-275,-967,2447,322,-1909,-404,156.7220,26.3154,-30.8559,1,0
0000995998,4,-0.2153,-0.2116,0.9446,0.1287,-1013,-735,960,-39,-1147,2431,208,-1969,-253,159.0697,20.6225,-29.1070,1,0
0000996019,4,-0.1520,-0.2199,0.9562,0.1194,-867,-756,1076,51,-1131,2427,-112,-1944,-83,162.3007,13.7784,-28.0575,1,0
0000996040,4,-0.1031,-0.2321,0.9612,0.1081,-867,-756,1076,223,-851,2407,-302,-1911,-14,165.0151,8.5064,-28.2717,1,0
0000996061,4,-0.0554,-0.2456,0.9632,0.0945,-718,-781,1159,391,-603,2143,-338,-1881,79,167.9009,3.4585,-28.9734,1,0
0000996082,4,-0.0094,-0.2582,0.9629,0.0782,-566,-803,1224,447,-419,1927,-322,-1838,164,171.0508,-1.2816,-29.9231,1,0
0000996103,4,0.0347,-0.2694,0.9605,0.0606,-421,-827,1273,407,-175,1679,-290,-1730,254,174.3637,-5.7023,-31.0535,1,0
0000996124,4,0.0849,-0.2809,0.9553,0.0364,-297,-849,1296,263,91,1499,-217,-1598,334,178.7219,-10.5217,-32.6562,1,0
0000996145,4,0.1199,-0.2867,0.9504,0.0157,-297,-849,1296,131,191,1435,-119,-1426,440,182.2966,-13.7024,-33.8521,1,0
0000996166,4,0.1491,-0.2894,0.9455,-0.0071,-189,-852,1320,-83,191,1367,3,-1238,571,185.9594,-16.1295,-34.8874,1,0
0000996187,4,0.1724,-0.2892,0.9410,-0.0329,-120,-840,1342,-259,55,1287,162,-1069,716,189.7743,-17.7866,-35.6973,1,0
0000996208,4,0.1898,-0.2848,0.9376,-0.0618,-81,-816,1373,-379,11,1179,325,-885,872,193.6745,-18.7061,-36.0600,1,0
0000996229,4,0.2024,-0.2765,0.9339,-0.1015,-70,-771,1406,-491,39,1135,449,-624,1024,198.5751,-18.7810,-36.0836,1,0
0000996250,4,0.2051,-0.2687,0.9314,-0.1346,-90,-714,1441,-623,-155,1179,487,-411,1122,202.3154,-18.0431,-35.7761,1,0
0000996271,4,0.2020,-0.2621,0.9286,-0.1679,-90,-714,1441,-863,-431,1195,448,-213,1161,205.8510,-16.6897,-35.3842,1,0
0000996292,4,0.1941,-0.2579,0.9253,-0.1990,-140,-663,1469,-1099,-451,1095,375,2,1140,208.9872,-14.8620,-35.0130,1,0
0000996313,4,0.1808,-0.2557,0.9221,-0.2275,-206,-616,1485,-1135,-339,1091,357,267,1110,211.6320,-12.5337,-34.5621,1,0
0000996334,4,0.1573,-0.2529,0.9181,-0.2614,-292,-549,1498,-1247,-599,1103,435,421,1151,214.5070,-9.0181,-33.6010,1,0
0000996355,4,0.1333,-0.2497,0.9146,-0.2886,-401,-465,1498,-1519,-951,1103,488,569,1186,216.6949,-5.7214,-32.4438,1,0
0000996376,4,0.1053,-0.2477,0.9104,-0.3144,-401,-465,1498,-1695,-1119,1115,463,740,1160,218.6762,-2.0603,-31.1634,1,0
0000996397,4,0.0735,-0.2472,0.9055,-0.3370,-518,-383,1482,-1991,-1227,1067,424,918,1096,220.3154,1.9254,-29.8339,1,0
0000996418,4,0.0378,-0.2491,0.8998,-0.3561,-649,-296,1448,-2195,-1387,1087,386,1113,1023,221.5812,6.2790,-28.5575,1,0
0000996439,4,-0.0118,-0.2554,0.8909,-0.3754,-792,-216,1383,-2335,-1539,1171,257,1335,982,222.7160,12.2819,-27.1774,1,0
0000996460,4,-0.0535,-0.2651,0.8807,-0.3889,-943,-144,1287,-2439,-1551,1099,130,1434,989,223.5077,17.4809,-26.4841,1,0
0000996481,4,-0.0956,-0.2774,0.8681,-0.4004,-1076,-78,1182,-2567,-1531,1067,48,1509,929,224.1707,22.8399,-26.0761,1,0
0000996502,4,-0.1387,-0.2907,0.8539,-0.4088,-1076,-78,1182,-2631,-1595,1035,54,1615,869,224.5547,28.3289,-25.7949,1,0
0000996523,4,-0.1940,-0.3064,0.8336,-0.4166,-1202,-10,1051,-2843,-1651,899,96,1627,862,224.9011,35.3651,-25.3508,1,0
0000996544,4,-0.2374,-0.3177,0.8159,-0.4208,-1312,64,907,-2787,-1419,803,77,1596,782,225.1475,40.8996,-24.9244,1,0
0000996565,4,-0.2771,-0.3300,0.7985,-0.4203,-1395,123,762,-2611,-1159,931,57,1553,519,224.7194,46.0501,-25.0796,1,0
0000996586,4,-0.3140,-0.3412,0.7835,-0.4138,-1458,160,620,-2575,-1351,939,190,1489,320,223.3143,50.7439,-25.7325,1,0
0000996607,4,-0.3485,-0.3489,0.7711,-0.4027,-1507,180,484,-2603,-1203,915,362,1347,108,221.1316,54.9414,-26.6179,1,0
0000996628,4,-0.3875,-0.3544,0.7606,-0.3818,-1507,180,484,-2463,-971,1035,582,1244,-104,216.8820,59.3205,-28.4572,1,0
0000996649,4,-0.4170,-0.3516,0.7580,-0.3576,-1550,182,353,-2223,-979,1143,964,1109,-283,212.1251,62.0970,-30.1091,1,0
0000996670,4,-0.4443,-0.3417,0.7610,-0.3268,-1572,168,234,-2091,-1087,1107,1281,940,-465,206.3218,64.0943,-31.7054,1,0
0000996691,4,-0.4678,-0.3271,0.7679,-0.2907,-1593,122,141,-2007,-1171,1067,1440,772,-627,199.6608,65.3083,-33.4645,1,0
0000996712,4,-0.4854,-0.3115,0.7771,-0.2520,-1605,47,73,-1975,-1247,1039,1393,548,-804,192.5236,65.7036,-35.5815,1,0
0000996733,4,-0.4990,-0.2940,0.7898,-0.2021,-1605,47,73,-1867,-1139,1131,1324,395,-931,183.5098,65.0991,-38.5925,1,0
0000996754,4,-0.5042,-0.2812,0.8004,-0.1613,-1607,-42,34,-1819,-1091,1203,1293,251,-1023,176.6920,63.8834,-40.7717,1,0
0000996775,4,-0.5045,-0.2682,0.8119,-0.1196,-1601,-148,30,-1731,-1095,1267,1307,106,-1084,170.6125,62.0543,-42.2101,1,0
0000996796,4,-0.5006,-0.2545,0.8238,-0.0773,-1587,-264,43,-1591,-1059,1279,1317,-16,-1128,165.3421,59.7844,-42.7881,1,0
0000996817,4,-0.4930,-0.2405,0.8354,-0.0349,-1559,-376,85,-1635,-1119,1323,1316,-161,-1169,160.7271,57.1906,-42.6998,1,0
0000996838,4,-0.4780,-0.2233,0.8493,0.0171,-1519,-480,154,-1963,-1231,1411,1229,-272,-1165,155.9105,53.5503,-41.7556,1,0
0000996859,4,-0.4619,-0.2125,0.8593,0.0559,-1519,-480,154,-1791,-1007,1467,1091,-419,-1167,152.7280,50.3595,-40.7948,1,0
0000996880,4,-0.4405,-0.2026,0.8698,0.0919,-1473,-581,244,-1695,-1135,1519,1062,-659,-1110,150.3809,46.8065,-39.2790,1,0
0000996901,4,-0.4124,-0.1937,0.8815,0.1239,-1409,-661,368,-1603,-1123,1531,917,-994,-1044,148.9834,42.7752,-37.1952,1,0
0000996922,4,-0.3788,-0.1884,0.8933,0.1522,-1321,-728,509,-1567,-1091,1931,751,-1156,-1025,148.1311,38.2702,-35.1292,1,0
0000996943,4,-0.3327,-0.1879,0.9060,0.1820,-1218,-787,645,-1531,-1027,2147,505,-1266,-961,147.4488,32.3068,-33.0955,1,0
0000996964,4,-0.2941,-0.1938,0.9142,0.2004,-1218,-787,645,-1331,-771,2307,273,-1352,-885,147.2402,27.3907,-32.1351,1,0
0000996985,4,-0.2542,-0.2020,0.9210,0.2150,-1100,-842,765,-1119,-595,2379,209,-1423,-792,147.3454,22.4249,-31.3897,1,0
0000997006,4,-0.2126,-0.2100,0.9272,0.2260,-960,-880,883,-583,-331,2375,198,-1531,-641,147.8030,17.4181,-30.5856,1,0
0000997027,4,-0.1693,-0.2180,0.9326,0.2327,-824,-906,992,-119,-279,2307,148,-1615,-509,148.6765,12.3748,-29.8027,1,0
0000997048,4,-0.1133,-0.2295,0.9376,0.2352,-670,-925,1076,111,-247,2331,59,-1690,-397,150.2767,6.0001,-29.0987,1,0
0000997069,4,-0.0678,-0.2416,0.9397,0.2325,-503,-941,1150,207,-15,2251,-62,-1765,-286,151.9833,0.8676,-29.0537,1,0
0000997090,4,-0.0217,-0.2552,0.9398,0.2264,-503,-941,1150,159,275,2183,-118,-1811,-186,154.0404,-4.2907,-29.3928,1,0
0000997111,4,0.0245,-0.2681,0.9383,0.2170,-340,-960,1194,91,503,2131,-67,-1817,-55,156.4570,-9.3468,-29.9365,1,0
0000997132,4,0.0805,-0.2804,0.9353,0.2003,-179,-963,1224,-11,527,2099,91,-1767,81,160.0324,-15.2407,-30.6764,1,0
0000997153,4,0.1236,-0.2845,0.9330,0.1823,-32,-949,1257,-119,483,1999,241,-1724,256,163.3608,-19.5383,-31.0286,1,0
0000997174,4,0.1643,-0.2856,0.9306,0.1593,91,-922,1279,-131,411,1811,366,-1659,415,167.2430,-23.3794,-31.4733,1,0
0000997195,4,0.2019,-0.2832,0.9281,0.1330,91,-922,1279,-107,359,1715,454,-1560,558,171.4723,-26.7522,-31.9095,1,0
0000997216,4,0.2357,-0.2788,0.9253,0.1030,198,-896,1297,-95,331,1563,528,-1454,710,176.1005,-29.5761,-32.5107,1,0
0000997237,4,0.2717,-0.2718,0.9213,0.0599,283,-863,1318,-175,295,1483,620,-1307,918,182.5300,-32.2159,-33.6092,1,0
0000997258,4,0.2955,-0.2641,0.9179,0.0207,339,-829,1348,-187,63,1275,699,-1205,1109,188.1572,-33.6039,-34.5694,1,0
0000997279,4,0.3146,-0.2558,0.9138,-0.0221,368,-800,1373,-183,-43,1143,732,-1062,1239,194.1138,-34.3056,-35.6557,1,0
0000997300,4,0.3277,-0.2482,0.9092,-0.0659,375,-771,1408,-231,-31,1175,715,-839,1310,199.9882,-34.2730,-36.7525,1,0
0000997321,4,0.3336,-0.2416,0.9047,-0.1090,375,-771,1408,-463,123,1323,672,-516,1401,205.4374,-33.4245,-37.6629,1,0
0000997342,4,0.3308,-0.2351,0.8992,-0.1635,344,-733,1450,-703,167,1495,728,-279,1497,211.7097,-31.2044,-38.3768,1,0
0000997363,4,0.3202,-0.2285,0.8954,-0.2085,275,-682,1503,-859,91,1535,870,-27,1586,216.2805,-28.5671,-38.1621,1,0
0000997384,4,0.3010,-0.2205,0.8924,-0.2538,177,-595,1560,-1079,-131,1623,959,271,1619,220.3334,-25.1736,-37.1340,1,0
0000997405,4,0.2736,-0.2142,0.8896,-0.2964,39,-491,1607,-1279,-399,1755,889,683,1568,223.6936,-21.0949,-35.6102,1,0
0000997426,4,0.2385,-0.2114,0.8870,-0.3342,39,-491,1607,-1419,-539,1759,791,999,1490,226.3045,-16.3682,-33.8450,1,0
0000997447,4,0.1854,-0.2133,0.8832,-0.3742,-131,-387,1617,-1691,-667,1831,708,1299,1412,228.6616,-9.6679,-31.5289,1,0
0000997468,4,0.1365,-0.2184,0.8792,-0.4008,-326,-275,1599,-2087,-923,1675,661,1531,1317,229.9944,-3.7212,-29.6394,1,0
0000997489,4,0.0828,-0.2249,0.8744,-0.4219,-526,-157,1541,-2355,-1059,1551,672,1751,1196,230.8863,2.5764,-27.6220,1,0
0000997510,4,0.0239,-0.2320,0.8683,-0.4378,-738,-34,1434,-2751,-1127,1555,761,2013,1076,231.4072,9.2976,-25.4398,1,0
0000997531,4,-0.0396,-0.2390,0.8602,-0.4488,-938,87,1287,-3171,-1359,1571,761,2134,1019,231.7369,16.4152,-23.0588,1,0
0000997552,4,-0.1209,-0.2510,0.8455,-0.4554,-938,87,1287,-3471,-1599,1447,601,2281,869,231.9209,25.6596,-20.4151,1,0
0000997573,4,-0.1834,-0.2653,0.8301,-0.4548,-1114,184,1111,-3467,-1459,1319,416,2300,710,231.7208,33.0836,-19.0642,1,0
0000997594,4,-0.2422,-0.2817,0.8118,-0.4506,-1260,257,910,-3479,-1215,1103,309,2256,624,231.3100,40.3186,-18.2784,1,0
0000997615,4,-0.2973,-0.2974,0.7913,-0.4439,-1368,313,706,-3607,-1243,895,309,2108,543,230.7716,47.2646,-17.7361,1,0
0000997636,4,-0.3586,-0.3138,0.7655,-0.4323,-1439,360,517,-3055,-1375,771,296,1898,393,229.8097,55.1266,-17.3404,1,0
0000997657,4,-0.3989,-0.3253,0.7471,-0.4206,-1485,379,364,-2911,-1167,735,246,1618,213,228.3579,60.4217,-17.7585,1,0
0000997678,4,-0.4308,-0.3354,0.7321,-0.4073,-1485,379,364,-2795,-879,715,245,1332,52,225.9848,64.6934,-19.1460,1,0
0000997699,4,-0.4564,-0.3430,0.7213,-0.3922,-1513,372,232,-2711,-415,891,329,1104,-115,222.4914,68.0346,-21.4585,1,0
0000997720,4,-0.4779,-0.3480,0.7151,-0.3731,-1531,354,128,-2511,-283,1207,550,922,-330,217.1914,70.5863,-25.1073,1,0
0000997741,4,-0.5010,-0.3496,0.7133,-0.3435,-1554,311,36,-2431,-199,1259,701,771,-461,208.0795,72.7203,-31.3534,1,0
0000997762,4,-0.5161,-0.3482,0.7159,-0.3160,-1571,244,-46,-2339,-107,1267,832,662,-596,199.1685,73.5373,-37.4924,1,0
0000997783,4,-0.5290,-0.3453,0.7211,-0.2845,-1571,244,-46,-2271,-59,1291,952,616,-732,189.1649,73.6173,-44.3131,1,0
0000997804,4,-0.5405,-0.3412,0.7277,-0.2487,-1583,158,-120,-2143,-99,1347,1069,586,-847,178.6555,73.0168,-51.2408,1,0
0000997825,4,-0.5496,-0.3361,0.7355,-0.2099,-1589,56,-182,-1931,-59,1299,1148,494,-973,168.8508,71.7181,-57.1875,1,0
0000997846,4,-0.5562,-0.3280,0.7470,-0.1583,-1590,-67,-222,-1731,-31,1211,1226,369,-1052,158.7997,69.1897,-62.1280,1,0
0000997867,4,-0.5567,-0.3196,0.7581,-0.1149,-1584,-201,-236,-1695,-27,1235,1316,201,-1118,152.8193,66.5754,-63.7571,1,0
0000997888,4,-0.5521,-0.3083,0.7715,-0.0707,-1565,-341,-203,-1691,-251,1315,1416,5,-1142,148.6979,63.5621,-63.2631,1,0
0000997909,4,-0.5416,-0.2947,0.7868,-0.0273,-1565,-341,-203,-1643,-259,1383,1452,-262,-1128,146.1490,60.2674,-61.0966,1,0
0000997930,4,-0.5232,-0.2790,0.8051,0.0137,-1538,-467,-116,-1631,-283,1495,1514,-665,-1088,145.2151,56.5981,-57.3775,1,0
0000997951,4,-0.4895,-0.2556,0.8315,0.0611,-1502,-579,19,-1639,-735,1887,1552,-948,-1001,145.5716,51.5132,-51.1797,1,0
0000997972,4,-0.4559,-0.2362,0.8530,0.0932,-1453,-656,190,-1635,-1339,2263,1399,-1172,-857,146.5669,47.2009,-45.9093,1,0
0000997993,4,-0.4180,-0.2216,0.8733,0.1166,-1389,-703,371,-1551,-1491,2371,1029,-1353,-702,148.0408,42.7109,-41.2487,1,0
0000998014,4,-0.3778,-0.2140,0.8912,0.1311,-1389,-703,371,-1299,-1603,2347,600,-1522,-505,149.8307,38.1166,-37.6381,1,0
0000998035,4,-0.3358,-0.2121,0.9074,0.1375,-1317,-732,534,-1139,-1711,2251,284,-1630,-330,151.9872,33.4424,-34.8787,1,0
0000998056,4,-0.2819,-0.2195,0.9242,0.1350,-1227,-752,686,-903,-1631,2195,-77,-1720,-231,155.1070,27.5060,-32.9016,1,0
0000998077,4,-0.2378,-0.2336,0.9341,0.1277,-1121,-785,814,-815,-1307,2319,-352,-1796,-197,157.7386,22.6158,-32.5806,1,0
0000998098,4,-0.1918,-0.2520,0.9412,0.1180,-998,-830,922,-779,-1055,2359,-493,-1871,-180,160.4709,17.5492,-33.0201,1,0
0000998119,4,-0.1441,-0.2713,0.9457,0.1062,-861,-876,1013,-687,-751,2291,-512,-1933,-128,163.4020,12.4147,-33.8326,1,0
0000998140,4,-0.0831,-0.2929,0.9484,0.0882,-861,-876,1013,-571,-687,2043,-446,-1962,-36,167.4507,6.0849,-34.9917,1,0
0000998161,4,-0.0349,-0.3070,0.9483,0.0722,-710,-910,1091,-423,-655,1891,-373,-1921,19,170.8882,1.2564,-35.9796,1,0
0000998182,4,0.0115,-0.3186,0.9463,0.0547,-557,-937,1151,-203,-551,1631,-304,-1857,95,174.4747,-3.2488,-37.0554,1,0
0000998203,4,0.0554,-0.3270,0.9427,0.0355,-419,-956,1195,3,-511,1271,-213,-1775,190,178.2263,-7.3376,-38.1441,1,0
0000998224,4,0.0960,-0.3327,0.9380,0.0145,-290,-961,1232,123,-483,1075,-117,-1643,304,182.1456,-10.9378,-39.2576,1,0
0000998245,4,0.1417,-0.3373,0.9306,-0.0133,-290,-961,1232,191,-447,879,-107,-1531,365,187.1444,-14.7594,-40.7710,1,0
0000998266,4,0.1740,-0.3408,0.9232,-0.0354,-175,-967,1257,203,-299,767,-123,-1395,400,191.1128,-17.2909,-42.2147,1,0
0000998287,4,0.2021,-0.3442,0.9151,-0.0570,-84,-981,1260,155,-159,751,-105,-1233,434,194.9483,-19.3118,-43.7773,1,0
0000998308,4,0.2255,-0.3459,0.9074,-0.0783,-10,-981,1263,35,15,755,-22,-1081,492,198.6029,-20.7995,-45.1825,1,0
0000998329,4,0.2444,-0.3453,0.9005,-0.1012,35,-973,1280,-83,3,787,134,-947,582,202.1994,-21.7296,-46.2708,1,0
0000998350,4,0.2610,-0.3390,0.8940,-0.1326,59,-946,1305,-175,-39,771,360,-768,706,206.5550,-22.1393,-46.8227,1,0
0000998371,4,0.2681,-0.3310,0.8906,-0.1597,59,-946,1305,-263,-35,791,489,-584,791,209.8330,-21.8246,-46.6571,1,0
0000998392,4,0.2689,-0.3220,0.8882,-0.1872,57,-902,1341,-379,-11,875,575,-364,854,212.7871,-20.9276,-46.0683,1,0
0000998413,4,0.2631,-0.3123,0.8873,-0.2143,23,-842,1384,-487,-11,987,641,-119,899,215.2838,-19.4539,-45.0206,1,0
0000998434,4,0.2506,-0.3028,0.8875,-0.2405,-42,-779,1427,-691,-163,1175,720,183,940,217.3354,-17.4140,-43.5955,1,0
0000998455,4,0.2257,-0.2906,0.8893,-0.2716,-136,-691,1465,-967,-367,1299,779,428,955,219.2956,-14.0964,-41.2443,1,0
0000998476,4,0.1983,-0.2815,0.8916,-0.2939,-258,-596,1489,-1167,-467,1355,804,695,922,220.3455,-10.8445,-39.0376,1,0
0000998497,4,0.1642,-0.2736,0.8946,-0.3128,-258,-596,1489,-1463,-759,1491,818,981,884,220.8768,-7.0500,-36.6368,1,0
0000998518,4,0.1235,-0.2669,0.8974,-0.3290,-414,-485,1488,-1851,-1211,1491,855,1270,893,221.0800,-2.6392,-34.1175,1,0
0000998539,4,0.0771,-0.2606,0.8989,-0.3438,-592,-365,1461,-2151,-1607,1391,889,1461,956,221.2044,2.3260,-31.4610,1,0
0000998560,4,0.0112,-0.2540,0.8971,-0.3614,-773,-224,1395,-2515,-1899,1247,890,1680,1021,221.5302,9.4145,-28.0475,1,0
0000998581,4,-0.0476,-0.2521,0.8914,-0.3737,-968,-90,1280,-2623,-1963,1215,787,1919,1052,221.8776,15.8626,-25.4834,1,0
0000998602,4,-0.1090,-0.2540,0.8814,-0.3830,-968,-90,1280,-2887,-2103,1219,621,2043,1003,222.2311,22.7553,-23.2636,1,0
0000998623,4,-0.1679,-0.2602,0.8674,-0.3895,-1144,21,1122,-3179,-2455,1047,427,2004,925,222.5876,29.5986,-21.6378,1,0
0000998644,4,-0.2334,-0.2717,0.8459,-0.3950,-1280,122,960,-2931,-2267,755,166,1831,787,223.0889,37.5586,-20.3226,1,0
0000998665,4,-0.2762,-0.2861,0.8268,-0.3978,-1376,180,803,-2651,-1675,571,-161,1637,603,223.2704,43.1819,-20.3316,1,0
0000998686,4,-0.3108,-0.3038,0.8078,-0.3983,-1443,207,659,-2503,-1451,483,-216,1461,450,222.8873,48.0808,-21.3437,1,0
0000998707,4,-0.3416,-0.3161,0.7911,-0.3968,-1483,245,545,-2443,-1543,635,3,1241,388,222.3648,52.3185,-22.0038,1,0
0000998728,4,-0.3687,-0.3217,0.7786,-0.3930,-1483,245,545,-2459,-1459,867,275,951,262,221.7813,55.7800,-22.0587,1,0
0000998749,4,-0.3972,-0.3218,0.7688,-0.3843,-1504,279,454,-2587,-1383,979,385,772,123,220.7429,59.0882,-21.6487,1,0
0000998770,4,-0.4151,-0.3207,0.7643,-0.3752,-1519,291,378,-2767,-1167,947,346,626,-8,219.4285,61.0566,-21.6601,1,0
0000998791,4,-0.4288,-0.3213,0.7610,-0.3656,-1535,287,313,-2807,-923,931,252,544,-99,217.5978,62.5800,-22.4015,1,0
0000998812,4,-0.4400,-0.3240,0.7582,-0.3558,-1541,272,264,-2967,-523,943,176,510,-181,215.2719,63.8625,-23.8577,1,0
0000998833,4,-0.4496,-0.3281,0.7560,-0.3445,-1541,272,264,-2743,-127,867,225,479,-304,212.2207,64.9309,-26.0895,1,0
0000998854,4,-0.4610,-0.3294,0.7570,-0.3256,-1558,242,214,-2223,215,735,498,405,-394,207.5243,65.8381,-29.0170,1,0
0000998875,4,-0.4701,-0.3235,0.7627,-0.3045,-1571,199,168,-1971,251,667,842,313,-489,203.2742,66.0661,-30.7106,1,0
0000998896,4,-0.4791,-0.3122,0.7716,-0.2785,-1572,158,131,-1947,123,723,1052,273,-580,198.7102,65.9642,-31.8469,1,0
0000998917,4,-0.4872,-0.3007,0.7812,-0.2488,-1592,91,93,-1975,71,935,1052,305,-709,193.4182,65.6269,-33.4242,1,0
0000998938,4,-0.4942,-0.2919,0.7899,-0.2160,-1595,0,53,-2019,387,1083,1012,346,-917,187.1819,65.0669,-35.9784,1,0
0000998959,4,-0.5008,-0.2818,0.8008,-0.1688,-1595,0,53,-1979,507,1147,1166,342,-1047,178.4483,63.7979,-39.7346,1,0
0000998980,4,-0.5052,-0.2690,0.8104,-0.1249,-1595,-104,30,-1991,375,1191,1443,325,-1111,171.3898,62.3781,-41.9485,1,0
0000999001,4,-0.5080,-0.2499,0.8207,-0.0772,-1582,-216,17,-1907,15,1231,1680,263,-1105,164.9071,60.7429,-42.7500,1,0
0000999022,4,-0.5078,-0.2256,0.8309,-0.0279,-1570,-323,36,-1771,-327,1331,1854,101,-1060,159.2567,58.9270,-42.1879,1,0
0000999043,4,-0.5028,-0.1983,0.8411,0.0204,-1540,-417,93,-1719,-1107,1411,1828,-34,-1022,154.6595,56.9004,-40.4228,1,0
0000999064,4,-0.4880,-0.1679,0.8532,0.0753,-1540,-417,93,-1683,-1431,1359,1552,-325,-999,150.2916,53.8504,-37.6045,1,0
0000999085,4,-0.4699,-0.1505,0.8623,0.1139,-1508,-501,179,-1555,-1467,1575,1253,-524,-1003,147.6051,50.9117,-35.5470,1,0
0000999106,4,-0.4474,-0.1417,0.8708,0.1469,-1460,-581,279,-1491,-1475,1923,849,-731,-998,145.4951,47.5127,-34.0577,1,0
0000999127,4,-0.4202,-0.1422,0.8791,0.1742,-1397,-657,397,-1407,-1279,2199,546,-980,-994,144.0112,43.5724,-33.1697,1,0
0000999148,4,-0.3870,-0.1463,0.8885,0.1986,-1306,-726,537,-1371,-1119,2287,531,-1272,-966,143.1359,39.0200,-32.1750,1,0
0000999169,4,-0.3379,-0.1513,0.9009,0.2264,-1199,-785,677,-1235,-1035,2275,521,-1423,-910,142.6744,32.7030,-30.3822,1,0
0000999190,4,-0.2971,-0.1583,0.9094,0.2442,-1199,-785,677,-991,-1219,2355,266,-1446,-810,142.6022,27.5860,-29.2485,1,0
0000999211,4,-0.2576,-0.1732,0.9153,0.2567,-1075,-836,799,-787,-911,2471,-115,-1499,-751,142.7567,22.4976,-29.1023,1,0
0000999232,4,-0.2175,-0.1950,0.9189,0.2650,-935,-895,896,-655,-271,2491,-320,-1641,-672,143.2207,17.2438,-29.7356,1,0
0000999253,4,-0.1640,-0.2235,0.9220,0.2701,-784,-956,972,-603,0,2315,-305,-1737,-553,144.4706,10.4621,-30.6168,1,0
0000999274,4,-0.1194,-0.2456,0.9234,0.2696,-619,-997,1032,-503,-91,2295,-343,-1792,-428,146.0264,5.0511,-31.3379,1,0
0000999295,4,-0.0754,-0.2700,0.9225,0.2653,-619,-997,1032,-179,111,2291,-475,-1813,-344,147.9777,-0.2405,-32.5559,1,0
0000999316,4,-0.0314,-0.2951,0.9194,0.2581,-458,-1047,1065,43,463,2311,-483,-1861,-248,150.3074,-5.4318,-34.1458,1,0
0000999337,4,0.0151,-0.3168,0.9160,0.2458,-290,-1081,1084,23,811,2163,-239,-1999,-85,153.3597,-10.5681,-35.6443,1,0
0000999358,4,0.0780,-0.3309,0.9139,0.2219,-126,-1081,1119,-31,599,1871,237,-2071,163,158.2995,-16.8194,-36.5576,1,0
0000999379,4,0.1274,-0.3327,0.9134,0.1970,20,-1048,1157,-23,307,1707,447,-1974,316,162.8230,-21.3347,-36.7723,1,0
0000999400,4,0.1717,-0.3325,0.9117,0.1694,141,-1022,1176,87,167,1651,430,-1800,412,167.5753,-25.2009,-37.2800,1,0
0000999421,4,0.2106,-0.3318,0.9086,0.1414,141,-1022,1176,143,307,1687,388,-1642,494,172.3334,-28.4652,-38.1701,1,0
0000999442,4,0.2454,-0.3294,0.9049,0.1113,245,-999,1188,123,423,1655,587,-1518,625,177.3345,-31.1669,-39.2614,1,0
0000999463,4,0.2842,-0.3177,0.9020,0.0683,324,-959,1212,55,287,1547,855,-1396,786,183.9547,-33.7852,-40.0084,1,0
0000999484,4,0.3095,-0.3028,0.9010,0.0287,374,-903,1249,-7,-79,1499,1010,-1240,947,189.5416,-35.1055,-40.1749,1,0
0000999505,4,0.3288,-0.2873,0.8996,-0.0132,398,-848,1289,-143,-75,1571,1005,-1051,1050,195.1814,-35.7265,-40.3387,1,0
0000999526,4,0.3412,-0.2726,0.8979,-0.0550,402,-794,1339,-275,43,1771,968,-747,1166,200.5089,-35.6448,-40.4319,1,0
0000999547,4,0.3465,-0.2591,0.8962,-0.0978,402,-794,1339,-579,51,1943,985,-587,1269,205.5969,-34.7799,-40.3893,1,0
0000999568,4,0.3444,-0.2412,0.8941,-0.1542,365,-733,1393,-719,-3,1947,1109,-373,1411,211.7046,-32.7802,-39.7413,1,0
0000999589,4,0.3359,-0.2253,0.8921,-0.2013,314,-651,1453,-855,-131,1927,1196,-193,1491,216.3690,-30.5748,-38.6017,1,0
0000999610,4,0.3215,-0.2098,0.8893,-0.2485,243,-545,1519,-959,-343,2151,1183,7,1538,220.7313,-27.8775,-37.0714,1,0
0000999631,4,0.3027,-0.1973,0.8850,-0.2936,165,-449,1560,-1019,-535,2175,1003,171,1530,224.7645,-24.8268,-35.4944,1,0
0000999652,4,0.2816,-0.1880,0.8790,-0.3358,165,-449,1560,-1075,-551,1983,961,255,1495,228.4990,-21.6375,-33.9815,1,0
0000999673,4,0.2486,-0.1765,0.8710,-0.3853,84,-344,1584,-1155,-643,1835,1050,533,1470,232.6348,-17.2770,-31.5008,1,0
0000999694,4,0.2133,-0.1689,0.8645,-0.4226,-20,-222,1601,-1267,-939,1795,1062,844,1460,235.4988,-13.0673,-29.0000,1,0
0000999715,4,0.1715,-0.1653,0.8580,-0.4551,-153,-100,1594,-1527,-1331,1815,945,1162,1325,237.8261,-8.2767,-26.3812,1,0
0000999736,4,0.1249,-0.1690,0.8522,-0.4792,-319,-4,1558,-1783,-1467,1919,667,1572,1034,239.3294,-2.9180,-24.0952,1,0
0000999757,4,0.0622,-0.1844,0.8451,-0.4978,-319,-4,1558,-2055,-1463,1811,464,1833,867,240.1239,4.5057,-22.0128,1,0
0000999778,4,0.0069,-0.2025,0.8385,-0.5058,-516,63,1491,-2627,-1279,1623,439,2146,770,240.1603,11.1448,-20.6888,1,0
0000999799,4,-0.0565,-0.2237,0.8295,-0.5086,-733,144,1377,-3107,-1447,1579,512,2490,733,239.8080,18.7422,-19.3408,1,0
0000999820,4,-0.1249,-0.2465,0.8167,-0.5066,-963,216,1214,-3371,-1619,1419,459,2651,684,239.2637,26.9862,-18.0536,1,0
0000999841,4,-0.1917,-0.2714,0.8002,-0.4993,-1163,277,1003,-3407,-1431,1163,379,2639,468,238.3745,35.2950,-17.3192,1,0
0000999862,4,-0.2692,-0.3016,0.7775,-0.4816,-1317,325,780,-3675,-1283,843,341,2533,289,236.3016,45.1720,-17.3106,1,0
0000999883,4,-0.3239,-0.3261,0.7585,-0.4620,-1317,325,780,-3691,-1207,763,196,2387,39,233.4329,52.4320,-18.6866,1,0
0000999904,4,-0.3685,-0.3526,0.7404,-0.4378,-1438,325,558,-3095,-583,555,58,2150,-256,228.3702,58.6961,-22.5904,1,0
0000999925,4,-0.4050,-0.3767,0.7253,-0.4099,-1515,286,357,-2959,-83,531,194,1889,-430,220.7402,63.6778,-28.9295,1,0
0000999946,4,-0.4375,-0.3918,0.7156,-0.3781,-1563,243,177,-2719,0,639,736,1512,-527,210.9044,67.2910,-36.5521,1,0
0000999967,4,-0.4730,-0.3931,0.7149,-0.3327,-1587,186,42,-2475,-59,755,1177,1128,-622,197.3913,69.6904,-45.4577,1,0
0000999988,4,-0.4947,-0.3837,0.7231,-0.2919,-1602,108,-52,-2403,-267,915,1466,807,-752,187.1407,69.9502,-50.8980,1,0
0001000009,4,-0.5104,-0.3694,0.7358,-0.2484,-1602,108,-52,-2303,-279,983,1579,589,-882,178.1429,69.1608,-54.5970,1,0
0001000030,4,-0.5205,-0.3540,0.7501,-0.2027,-1612,-3,-112,-2051,-247,1159,1597,447,-1000,170.2637,67.5787,-57.0561,1,0
0001000051,4,-0.5260,-0.3383,0.7646,-0.1559,-1606,-125,-141,-1743,-291,1331,1570,303,-1083,163.5639,65.4822,-58.3445,1,0
0001000072,4,-0.5264,-0.3180,0.7824,-0.0981,-1596,-252,-138,-1559,-411,1411,1552,152,-1083,156.9714,62.3825,-58.2983,1,0
0001000093,4,-0.5215,-0.3001,0.7969,-0.0536,-1582,-376,-102,-1335,-575,1499,1565,-40,-1044,153.1933,59.6962,-56.8414,1,0
0001000114,4,-0.5110,-0.2804,0.8125,-0.0116,-1582,-376,-102,-1223,-691,1563,1546,-241,-1003,150.7130,56.8079,-54.1670,1,0
0001000135,4,-0.4955,-0.2605,0.8281,0.0279,-1550,-482,-24,-1143,-819,1695,1482,-499,-973,149.0335,53.7267,-50.9030,1,0
0001000156,4,-0.4737,-0.2414,0.8445,0.0642,-1510,-572,93,-1023,-1079,1987,1396,-687,-949,148.1658,50.2751,-47.1515,1,0
0001000177,4,-0.4376,-0.2213,0.8654,0.1029,-1467,-648,232,-883,-1351,2247,1183,-1005,-885,148.0334,45.3826,-42.3517,1,0
0001000198,4,-0.4028,-0.2099,0.8816,0.1280,-1398,-707,397,-811,-1515,2375,968,-1217,-825,148.4368,41.0399,-38.8605,1,0
0001000219,4,-0.3635,-0.2038,0.8970,0.1475,-1306,-752,558,-695,-1619,2535,690,-1405,-750,149.1896,36.2984,-35.9225,1,0
0001000240,4,-0.3211,-0.2040,0.9107,0.1607,-1306,-752,558,-547,-1491,2607,346,-1611,-641,150.2712,31.2818,-33.7548,1,0
0001000261,4,-0.2641,-0.2121,0.9253,0.1703,-1199,-792,714,-403,-1279,2575,131,-1723,-578,151.9720,24.6206,-32.0503,1,0
0001000282,4,-0.2159,-0.2222,0.9348,0.1738,-1069,-831,849,-219,-895,2631,23,-1840,-509,153.5620,19.0514,-31.2604,1,0
0001000303,4,-0.1650,-0.2337,0.9424,0.1732,-915,-862,978,-131,-567,2711,-26,-1977,-408,155.4936,13.3006,-30.7587,1,0
0001000324,4,-0.1107,-0.2451,0.9483,0.1684,-738,-879,1090,-135,-467,2655,-39,-2118,-282,157.8647,7.3163,-30.4177,1,0
0001000345,4,-0.0540,-0.2561,0.9520,0.1589,-738,-879,1090,-27,-227,2371,-23,-2246,-130,160.7191,1.2257,-30.3220,1,0
0001000366,4,0.0189,-0.2675,0.9529,0.1418,-550,-893,1186,95,-123,2155,9,-2274,-29,164.8268,-6.4183,-30.5070,1,0
0001000387,4,0.0759,-0.2744,0.9504,0.1250,-349,-891,1255,191,-75,1851,48,-2215,59,168.4264,-12.2924,-30.9538,1,0
0001000408,4,0.1295,-0.2796,0.9454,0.1062,-156,-883,1303,147,-7,1627,79,-2098,137,172.2529,-17.7179,-31.7401,1,0
0001000429,4,0.1791,-0.2826,0.9384,0.0862,16,-876,1320,107,27,1479,122,-1961,219,176.2366,-22.6331,-32.7612,1,0
0001000450,4,0.2238,-0.2836,0.9303,0.0641,167,-861,1325,139,55,1239,235,-1761,350,180.4933,-26.9191,-34.0286,1,0
0001000471,4,0.2720,-0.2802,0.9200,0.0336,167,-861,1325,143,15,1011,361,-1573,462,186.0864,-31.2802,-35.5822,1,0
0001000492,4,0.3036,-0.2738,0.9126,0.0066,286,-833,1335,103,-3,931,492,-1371,573,190.7054,-33.9000,-36.6783,1,0
0001000513,4,0.3290,-0.2654,0.9060,-0.0227,373,-796,1342,23,-3,843,601,-1166,687,195.4231,-35.7400,-37.6556,1,0
0001000534,4,0.3480,-0.2554,0.9004,-0.0542,427,-758,1357,-147,7,819,688,-954,806,200.1167,-36.7948,-38.4299,1,0
0001000555,4,0.3601,-0.2445,0.8960,-0.0877,452,-712,1385,-327,103,875,792,-655,949,204.6858,-37.0467,-38.9153,1,0
0001000576,4,0.3645,-0.2296,0.8928,-0.1319,452,-712,1385,-775,183,1095,887,-377,1063,209.9417,-36.1793,-38.8301,1,0
0001000597,4,0.3590,-0.2169,0.8919,-0.1693,428,-654,1430,-1163,-11,1207,1005,-112,1164,213.7516,-34.5391,-38.1108,1,0
0001000618,4,0.3457,-0.2029,0.8923,-0.2077,375,-583,1480,-1295,-107,1311,1109,152,1216,217.1350,-32.1872,-36.6932,1,0
0001000639,4,0.3241,-0.1889,0.8937,-0.2462,285,-486,1537,-1527,-559,1563,1202,544,1313,220.0692,-29.0911,-34.6764,1,0
0001000660,4,0.2927,-0.1763,0.8955,-0.2850,147,-369,1584,-1891,-1015,1819,1160,933,1400,222.6517,-25.0777,-32.1976,1,0
0001000681,4,0.2393,-0.1681,0.8972,-0.3309,-39,-256,1602,-2119,-1363,1835,1048,1332,1426,225.3326,-18.5536,-29.0345,1,0
0001000702,4,0.1879,-0.1669,0.8976,-0.3622,-39,-256,1602,-1971,-1651,1691,912,1622,1293,226.9073,-12.5003,-26.5106,1,0
0001000723,4,0.1322,-0.1702,0.8976,-0.3845,-246,-143,1585,-1695,-1475,1583,797,1884,991,227.6805,-6.1076,-24.1714,1,0
0001000744,4,0.0702,-0.1755,0.8981,-0.3971,-478,-31,1524,-1731,-1311,1587,831,2213,768,227.5650,0.7614,-21.7813,1,0
0001000765,4,-0.0194,-0.1825,0.8954,-0.4058,-733,87,1399,-2151,-1535,1719,885,2594,766,227.0428,10.5414,-18.4467,1,0
0001000786,4,-0.0960,-0.1942,0.8860,-0.4099,-977,193,1214,-2923,-1843,1759,584,2799,795,226.8664,19.2296,-16.3236,1,0
0001000807,4,-0.1695,-0.2169,0.8693,-0.4106,-1185,241,990,-3471,-1515,1691,91,2860,662,226.6025,28.2153,-15.6608,1,0
0001000828,4,-0.2369,-0.2451,0.8483,-0.4053,-1185,241,990,-4111,-579,1679,-4,2763,445,225.6125,36.9109,-16.2609,1,0
0001000849,4,-0.3015,-0.2655,0.8268,-0.3937,-1346,281,742,-4055,-667,1371,555,2554,314,224.0142,45.0482,-16.5797,1,0
0001000870,4,-0.3786,-0.2756,0.8024,-0.3699,-1450,326,497,-3055,-1003,1003,748,2317,123,221.1993,54.2442,-16.1169,1,0
0001000891,4,-0.4295,-0.2826,0.7841,-0.3477,-1508,344,284,-2935,-1183,451,523,1995,-51,217.8483,60.4588,-17.0498,1,0
0001000912,4,-0.4683,-0.2929,0.7670,-0.3267,-1537,322,115,-2647,-847,535,285,1629,-200,213.0873,65.4562,-20.1905,1,0
0001000933,4,-0.4959,-0.3026,0.7535,-0.3078,-1537,322,115,-2787,-363,783,245,1190,-254,207.1865,69.0056,-24.8891,1,0
0001000954,4,-0.5156,-0.3083,0.7450,-0.2899,-1551,293,1,-2879,51,1119,345,882,-321,200.7941,71.2678,-29.9811,1,0
0001000975,4,-0.5347,-0.3108,0.7402,-0.2637,-1556,251,-82,-2715,355,1387,582,703,-466,191.3637,72.8499,-37.1519,1,0
0001000996,4,-0.5478,-0.3078,0.7409,-0.2370,-1566,190,-145,-2575,343,1403,857,590,-573,182.7762,73.2776,-43.0608,1,0
0001001017,4,-0.5590,-0.3003,0.7451,-0.2052,-1573,103,-208,-2351,195,1307,1099,500,-682,174.1207,72.9986,-48.2538,1,0
0001001038,4,-0.5684,-0.2897,0.7515,-0.1682,-1571,9,-253,-2095,35,1167,1273,440,-794,165.5917,72.1217,-52.6745,1,0
0001001059,4,-0.5748,-0.2775,0.7591,-0.1279,-1571,9,-253,-1939,63,1055,1352,326,-912,157.8380,70.6819,-55.9757,1,0
0001001080,4,-0.5777,-0.2612,0.7697,-0.0750,-1576,-113,-278,-1731,27,987,1421,187,-961,149.8806,68.1960,-58.1414,1,0
0001001101,4,-0.5744,-0.2464,0.7799,-0.0326,-1561,-239,-268,-1647,-215,1075,1428,-9,-968,145.4906,65.7871,-57.7904,1,0
0001001122,4,-0.5657,-0.2317,0.7914,0.0072,-1547,-351,-218,-1651,-371,1079,1344,-251,-912,142.7804,63.1250,-56.0044,1,0
0001001143,4,-0.5501,-0.2185,0.8049,0.0416,-1531,-448,-126,-1739,-235,1067,1177,-545,-852,141.8499,60.1619,-53.0230,1,0
0001001164,4,-0.5281,-0.2070,0.8204,0.0714,-1531,-448,-126,-1731,-119,1215,1094,-861,-799,142.1268,56.8273,-49.3548,1,0
0001001185,4,-0.4929,-0.1932,0.8420,0.1039,-1510,-533,0,-1791,-475,1403,1025,-1098,-692,143.4290,52.1746,-44.2202,1,0
0001001206,4,-0.4583,-0.1834,0.8609,0.1235,-1468,-593,165,-1947,-715,1519,882,-1342,-574,145.2776,48.0524,-39.9237,1,0
0001001227,4,-0.4191,-0.1760,0.8801,0.1371,-1426,-625,340,-2031,-723,1643,727,-1528,-441,147.5320,43.5924,-35.8949,1,0
0001001248,4,-0.3770,-0.1717,0.8986,0.1445,-1358,-641,520,-2007,-799,1703,446,-1683,-286,149.9916,38.8983,-32.4457,1,0
0001001269,4,-0.3220,-0.1720,0.9194,0.1466,-1273,-648,686,-1859,-899,1635,300,-1718,-228,153.0944,32.7943,-29.2452,1,0
0001001290,4,-0.2789,-0.1745,0.9331,0.1455,-1273,-648,686,-1575,-959,1863,145,-1646,-161,155.3034,28.0172,-27.4365,1,0
0001001311,4,-0.2374,-0.1841,0.9435,0.1396,-1174,-661,830,-1139,-791,2055,-252,-1679,-85,157.5328,23.3695,-26.7830,1,0
0001001332,4,-0.1950,-0.2003,0.9512,0.1307,-1067,-690,938,-543,-659,2047,-408,-1734,-86,159.8409,18.5751,-27.1138,1,0
0001001353,4,-0.1510,-0.2153,0.9571,0.1218,-933,-719,1042,-175,-747,2059,-256,-1769,-105,162.1299,13.6819,-27.5225,1,0
0001001374,4,-0.0937,-0.2303,0.9622,0.1110,-787,-743,1139,163,-1043,2159,-245,-1812,-106,164.9952,7.4203,-27.8992,1,0
0001001395,4,-0.0460,-0.2431,0.9635,0.1020,-787,-743,1139,459,-1043,2195,-301,-1879,-147,167.3416,2.2385,-28.5654,1,0
0001001416,4,0.0036,-0.2562,0.9620,0.0942,-624,-783,1212,615,-1019,2179,-325,-1914,-213,169.6537,-3.1597,-29.5443,1,0
0001001437,4,0.0539,-0.2694,0.9576,0.0873,-436,-815,1261,651,-899,2115,-351,-1923,-262,171.9680,-8.6388,-30.8157,1,0
