Time(ms),Interval,Qx,Qy,Qz,Qw,Mx,My,Mz,Ax,Ay,Az,Rx,Ry,Rz,H1,P1,R1,H2,P2,R2,CalStable,MagTransient
0000979744,8,0.1954,0.5569,-0.3457,0.7295,-320,266,573,-1927,-159,619,-5,-3,1,296.1355,71.3655,-18.2351,1,1
0000979765,8,0.1954,0.5568,-0.3458,0.7295,-320,265,571,-1919,-195,615,7,0,0,296.1439,71.3634,-18.2230,1,1
0000979786,8,0.1957,0.5567,-0.3459,0.7294,-320,267,572,-1919,-211,603,11,1,0,296.1422,71.3680,-18.1829,1,1
0000979807,8,0.1958,0.5567,-0.3460,0.7294,-318,266,571,-1915,-167,603,1,0,0,296.1430,71.3726,-18.1665,1,1
0000979828,8,0.1959,0.5567,-0.3460,0.7294,-318,266,571,-1915,-183,599,4,0,0,296.1492,71.3755,-18.1516,1,1
0000979849,8,0.1959,0.5567,-0.3460,0.7294,-320,266,571,-1915,-223,603,-7,-2,1,296.1569,71.3733,-18.1478,1,1
0000979870,8,0.1956,0.5567,-0.3458,0.7296,-318,266,573,-1915,-195,611,-14,-4,3,296.1907,71.3639,-18.1584,1,1
0000979891,8,0.1954,0.5567,-0.3456,0.7297,-318,268,573,-1915,-167,619,2,-4,2,296.2436,71.3528,-18.1348,1,1
0000979912,8,0.1956,0.5565,-0.3457,0.7298,-318,268,573,-1907,-199,611,9,-5,1,296.2740,71.3411,-18.0771,1,1
0000979933,8,0.1956,0.5563,-0.3458,0.7299,-318,268,573,-1907,-195,615,-3,-8,2,296.3099,71.3236,-18.0353,1,1
0000979954,8,0.1954,0.5562,-0.3456,0.7301,-316,266,574,-1927,-187,631,-8,-8,3,296.3683,71.2991,-18.0066,1,1
0000979975,8,0.1954,0.5561,-0.3455,0.7302,-316,268,575,-1915,-175,619,2,-3,3,296.4145,71.2882,-17.9686,1,1
0000979996,8,0.1956,0.5559,-0.3457,0.7302,-315,269,574,-1915,-183,611,11,-2,1,296.4413,71.2818,-17.9107,1,1
0000980017,8,0.1957,0.5558,-0.3458,0.7302,-315,269,577,-1903,-211,627,0,-3,1,296.4606,71.2741,-17.8721,1,1
0000980038,8,0.1955,0.5558,-0.3456,0.7304,-315,269,577,-1911,-183,631,-15,-4,3,296.4986,71.2642,-17.8702,1,1
0000980059,8,0.1952,0.5559,-0.3453,0.7305,-314,266,576,-1919,-199,619,-12,-2,2,296.5338,71.2587,-17.8807,1,1
0000980080,8,0.1950,0.5559,-0.3451,0.7306,-314,268,575,-1911,-199,615,-21,-3,2,296.5626,71.2530,-17.8985,1,1
0000980101,8,0.1943,0.5561,-0.3445,0.7310,-314,266,578,-1903,-179,623,-34,-7,2,296.6104,71.2364,-17.9572,1,1
0000980122,8,0.1934,0.5563,-0.3439,0.7313,-311,265,577,-1903,-167,615,-44,-8,3,296.6587,71.2168,-18.0402,1,1
0000980143,8,0.1925,0.5566,-0.3432,0.7317,-311,265,577,-1923,-175,623,-43,-8,1,296.7056,71.1950,-18.1310,1,1
0000980164,8,0.1918,0.5568,-0.3427,0.7320,-312,261,579,-1931,-223,639,-33,-3,1,296.7351,71.1817,-18.2169,1,1
0000980185,8,0.1910,0.5571,-0.3420,0.7322,-311,261,581,-1947,-191,679,-52,3,4,296.7624,71.1774,-18.3123,1,1
0000980206,8,0.1899,0.5579,-0.3409,0.7324,-311,258,580,-1927,-131,711,-47,17,3,296.7716,71.2196,-18.5037,1,1
0000980227,8,0.1897,0.5587,-0.3403,0.7322,-314,256,578,-1927,-163,675,-15,34,0,296.7003,71.3005,-18.6532,1,1
0000980248,8,0.1898,0.5596,-0.3399,0.7316,-314,256,578,-1947,-243,615,-19,43,1,296.5739,71.4197,-18.8141,1,1
0000980269,8,0.1896,0.5608,-0.3391,0.7312,-316,253,575,-1927,-215,599,-40,45,5,296.4755,71.5549,-19.0161,1,1
0000980290,8,0.1895,0.5620,-0.3383,0.7307,-321,252,573,-1919,-171,559,-17,47,5,296.3834,71.6974,-19.1958,1,1
0000980311,8,0.1900,0.5630,-0.3378,0.7299,-321,253,571,-1919,-199,463,14,39,5,296.2761,71.8624,-19.3109,1,1
0000980332,8,0.1910,0.5633,-0.3380,0.7294,-321,253,571,-1899,-315,475,33,19,9,296.2477,71.9521,-19.2418,1,1
0000980353,8,0.1916,0.5631,-0.3379,0.7294,-323,253,571,-1927,-239,511,5,-2,17,296.3679,71.9798,-19.0784,1,1
0000980374,8,0.1920,0.5628,-0.3377,0.7296,-321,255,573,-1935,-167,607,15,-9,19,296.5735,71.9784,-18.8555,1,1
0000980395,8,0.1927,0.5623,-0.3378,0.7298,-321,259,573,-1935,-119,651,46,-4,16,296.7710,71.9700,-18.5764,1,1
0000980416,8,0.1947,0.5614,-0.3387,0.7295,-321,264,573,-1927,-207,643,85,6,14,296.9474,71.9923,-18.1509,1,1
0000980437,8,0.1966,0.5608,-0.3396,0.7290,-321,264,573,-1907,-183,659,79,14,15,297.0533,72.0379,-17.7944,1,1
0000980458,8,0.1986,0.5604,-0.3404,0.7285,-321,268,572,-1899,-163,691,82,23,16,297.1533,72.1112,-17.4567,1,1
0000980479,8,0.2009,0.5601,-0.3414,0.7276,-323,272,571,-1879,-99,655,99,37,11,297.1879,72.2147,-17.1397,1,1
0000980500,8,0.2037,0.5598,-0.3428,0.7263,-324,278,567,-1891,-131,603,156,51,0,297.1080,72.3515,-16.8480,1,1
0000980521,8,0.2084,0.5591,-0.3457,0.7242,-329,287,562,-1899,-239,559,174,50,-3,296.8949,72.5380,-16.3994,1,1
0000980542,8,0.2119,0.5586,-0.3478,0.7226,-329,287,562,-1923,-215,579,146,47,0,296.7424,72.6794,-16.0620,1,1
0000980563,8,0.2150,0.5582,-0.3495,0.7211,-331,293,558,-1927,-131,563,134,46,3,296.6327,72.8181,-15.7536,1,1
0000980584,8,0.2181,0.5578,-0.3512,0.7197,-333,298,554,-1931,-123,611,139,43,3,296.5464,72.9528,-15.4122,1,1
0000980605,8,0.2212,0.5574,-0.3531,0.7182,-335,306,550,-1967,-95,575,146,51,-2,296.4130,73.0923,-15.1092,1,1
0000980626,8,0.2254,0.5569,-0.3557,0.7160,-338,309,544,-2003,-127,575,162,55,-8,296.1659,73.2816,-14.7559,1,1
0000980647,8,0.2290,0.5564,-0.3580,0.7140,-338,309,544,-1999,-119,563,168,59,-15,295.8803,73.4438,-14.5182,1,1
0000980668,8,0.2325,0.5561,-0.3606,0.7118,-344,317,539,-1971,7,555,173,62,-25,295.4948,73.6092,-14.3680,1,1
0000980689,8,0.2361,0.5557,-0.3635,0.7094,-346,321,532,-1979,67,571,192,63,-38,294.9861,73.7717,-14.2928,1,1
0000980710,8,0.2401,0.5552,-0.3671,0.7067,-352,330,527,-2003,27,587,222,65,-49,294.3169,73.9281,-14.2894,1,1
0000980731,8,0.2449,0.5545,-0.3717,0.7031,-358,333,517,-2019,123,587,199,59,-51,293.4263,74.1162,-14.3339,1,1
0000980752,8,0.2486,0.5539,-0.3754,0.7004,-358,333,517,-2119,335,571,218,57,-64,292.6699,74.2467,-14.4314,1,1
0000980773,8,0.2527,0.5526,-0.3805,0.6972,-366,336,508,-2179,191,387,291,31,-90,291.6636,74.3140,-14.5958,1,1
0000980794,8,0.2573,0.5503,-0.3863,0.6940,-375,340,500,-2183,-3,527,290,10,-68,290.7360,74.3061,-14.5658,1,1
0000980815,8,0.2607,0.5483,-0.3899,0.6924,-381,340,494,-1947,447,1043,122,-23,-2,290.4148,74.2681,-14.2418,1,1
0000980836,8,0.2593,0.5469,-0.3886,0.6947,-383,330,497,-1659,287,1331,-168,-150,87,291.2728,74.0338,-13.6103,1,1
0000980857,8,0.2550,0.5437,-0.3851,0.7008,-383,330,497,-1279,-119,1395,-147,-216,106,293.1439,73.4170,-12.4249,1,1
0000980878,8,0.2508,0.5384,-0.3826,0.7077,-380,314,502,-1055,187,2259,-154,-403,152,295.1728,72.5498,-10.9395,1,1
0000980899,8,0.2458,0.5273,-0.3816,0.7183,-362,300,518,-1611,1115,1643,-21,-634,192,297.8521,70.9228,-8.6824,1,1
0000980920,8,0.2468,0.5097,-0.3869,0.7277,-343,304,532,-1487,771,1599,529,-722,150,300.1602,68.8830,-5.5995,1,1
0000980941,8,0.2595,0.4791,-0.4039,0.7348,-327,321,541,-1615,-127,1427,907,-762,128,301.8837,66.0287,-0.7978,1,1
0000980962,8,0.2669,0.4551,-0.4146,0.7415,-327,321,541,-1355,-679,1259,518,-773,215,303.0436,63.6576,2.3706,1,1
0000980983,8,0.2657,0.4353,-0.4171,0.7523,-313,317,563,-1459,-251,1043,45,-777,315,304.5849,61.2310,4.3803,1,1
0000981004,8,0.2592,0.4190,-0.4142,0.7653,-298,296,589,-1555,-47,899,-151,-713,349,306.2594,58.8747,5.5083,1,1
0000981025,8,0.2532,0.4049,-0.4101,0.7770,-293,273,611,-1683,-211,723,-108,-552,331,307.8363,56.8166,6.4334,1,1
0000981046,8,0.2489,0.3943,-0.4052,0.7864,-305,251,625,-1727,-319,607,-168,-322,311,309.2834,55.2657,7.2549,1,1
0000981067,8,0.2446,0.3907,-0.3956,0.7944,-305,251,625,-1231,-339,2179,-303,-16,292,311.1118,54.5073,7.8717,1,1
0000981088,8,0.2405,0.3963,-0.3858,0.7976,-335,214,625,-3063,-39,-1215,-310,328,160,312.4114,54.8698,7.7734,1,1
0000981109,8,0.2424,0.4127,-0.3798,0.7916,-396,180,591,-1679,-767,1483,-255,713,-130,312.7534,56.8774,7.3980,1,1
0000981130,8,0.2407,0.4269,-0.3781,0.7854,-440,143,565,-3539,-399,1071,-28,398,-244,311.9901,58.5003,6.0735,1,1
0000981151,8,0.2407,0.4390,-0.3804,0.7775,-489,107,536,-2079,43,347,-114,554,-329,310.5261,59.9856,4.6205,1,1
0000981172,8,0.2444,0.4543,-0.3855,0.7650,-489,107,536,-2091,259,591,290,483,-316,308.2598,62.0698,2.9071,1,1
0000981193,8,0.2531,0.4620,-0.3933,0.7536,-526,92,508,-2239,-419,539,321,459,-314,306.3079,63.5466,2.3149,1,1
0000981214,8,0.2546,0.4720,-0.3966,0.7451,-558,67,484,-2087,51,667,-127,395,-247,304.3939,64.8572,0.6934,1,1
0000981235,8,0.2506,0.4832,-0.3945,0.7404,-585,37,462,-2219,459,575,-321,327,-165,302.9782,65.9465,-1.4214,1,1
0000981256,8,0.2465,0.4934,-0.3921,0.7363,-607,11,444,-2251,591,415,-201,306,-166,301.6296,66.9015,-3.4812,1,1
0000981277,8,0.2449,0.5026,-0.3922,0.7305,-607,11,444,-1839,-435,475,-103,232,-157,299.8013,67.8724,-5.5542,1,1
0000981298,8,0.2408,0.5094,-0.3907,0.7279,-626,-8,430,-1751,-747,499,-286,166,-123,298.5191,68.3997,-7.4095,1,1
0000981319,8,0.2341,0.5165,-0.3873,0.7270,-636,-35,421,-1983,-387,519,-344,133,-99,297.4114,68.7866,-9.4817,1,1
0000981340,8,0.2287,0.5223,-0.3844,0.7260,-645,-53,410,-2003,-55,615,-193,119,-87,296.4479,69.1101,-11.2437,1,1
0000981361,8,0.2257,0.5267,-0.3831,0.7245,-652,-67,401,-1943,-343,703,-139,109,-73,295.5397,69.4059,-12.5692,1,1
0000981382,8,0.2211,0.5321,-0.3802,0.7235,-652,-67,401,-1815,-423,659,-271,91,-35,294.6752,69.7286,-14.1476,1,1
0000981403,8,0.2155,0.5370,-0.3754,0.7241,-657,-82,392,-1915,-291,559,-328,76,-4,294.3710,69.9577,-15.4185,1,1
0000981424,8,0.2108,0.5413,-0.3710,0.7245,-664,-96,387,-1939,-167,663,-241,77,-2,294.1652,70.1783,-16.4667,1,1
0000981445,8,0.2082,0.5447,-0.3681,0.7242,-668,-101,379,-1907,-67,627,-114,93,-15,293.8798,70.4228,-17.2615,1,1
0000981466,8,0.2073,0.5474,-0.3668,0.7231,-668,-101,379,-1935,-159,599,-36,100,-26,293.4440,70.6831,-17.9262,1,1
0000981487,8,0.2074,0.5504,-0.3662,0.7211,-676,-105,372,-1935,-323,627,-30,99,-22,292.7970,71.0174,-18.6428,1,1
0000981508,8,0.2070,0.5529,-0.3651,0.7198,-681,-110,365,-1883,-155,639,-67,100,-13,292.3406,71.2921,-19.2494,1,1
0000981529,8,0.2070,0.5553,-0.3643,0.7184,-687,-114,361,-1919,-55,567,-8,99,-19,291.8858,71.5613,-19.7951,1,1
0000981550,8,0.2085,0.5569,-0.3649,0.7164,-694,-114,355,-1907,-271,675,73,103,-27,291.3170,71.8272,-20.1913,1,1
0000981571,8,0.2106,0.5584,-0.3659,0.7141,-694,-114,355,-1947,-307,659,64,106,-24,290.6985,72.1050,-20.5564,1,1
0000981592,8,0.2129,0.5599,-0.3674,0.7115,-699,-114,349,-1795,-195,527,91,78,-38,289.9202,72.3922,-21.0122,1,1
0000981613,8,0.2156,0.5600,-0.3698,0.7093,-704,-116,348,-1851,-167,579,173,54,-32,289.3316,72.5365,-21.1466,1,1
0000981634,8,0.2182,0.5598,-0.3715,0.7078,-707,-112,347,-1995,-171,535,59,47,5,289.0488,72.6652,-21.0539,1,1
0000981655,8,0.2192,0.5603,-0.3710,0.7074,-712,-111,345,-1931,-271,499,0,36,32,289.1305,72.8038,-20.9412,1,1
0000981676,8,0.2204,0.5605,-0.3703,0.7072,-712,-111,345,-1923,-471,575,39,16,45,289.4111,72.9365,-20.6195,1,1
0000981697,8,0.2222,0.5599,-0.3696,0.7075,-715,-106,343,-1975,-363,583,16,2,64,290.0207,73.0300,-19.9224,1,1
0000981718,8,0.2237,0.5593,-0.3683,0.7081,-717,-103,346,-1939,-299,535,19,5,83,290.7751,73.1233,-19.1523,1,1
0000981739,8,0.2258,0.5585,-0.3672,0.7087,-721,-93,347,-1927,-507,519,53,3,96,291.6628,73.2237,-18.1834,1,1
0000981760,8,0.2285,0.5574,-0.3660,0.7093,-720,-81,347,-1939,-231,499,48,7,105,292.6915,73.3357,-17.0245,1,1
0000981781,8,0.2308,0.5568,-0.3645,0.7098,-720,-81,347,-1987,-83,523,58,32,98,293.6834,73.4783,-15.9697,1,1
0000981802,8,0.2352,0.5561,-0.3636,0.7093,-723,-71,347,-1895,-103,671,107,61,85,294.7078,73.7449,-14.6422,1,1
0000981823,8,0.2386,0.5561,-0.3628,0.7086,-725,-61,346,-1891,-91,679,54,70,85,295.4155,74.0121,-13.7268,1,1
0000981844,8,0.2411,0.5567,-0.3608,0.7083,-729,-52,343,-1939,-155,659,1,78,99,296.2484,74.2981,-12.8628,1,1
0000981865,8,0.2429,0.5580,-0.3578,0.7083,-734,-44,336,-1939,-91,571,-46,89,107,297.2098,74.6216,-12.0312,1,1
0000981886,8,0.2446,0.5594,-0.3546,0.7082,-734,-44,336,-1991,3,451,-8,95,100,298.2023,74.9625,-11.1950,1,1
0000981907,8,0.2480,0.5607,-0.3520,0.7072,-738,-37,331,-1963,-43,475,45,101,87,299.3185,75.4015,-10.0324,1,1
0000981928,8,0.2510,0.5619,-0.3503,0.7061,-746,-28,328,-1975,-3,503,27,115,76,300.0711,75.7697,-9.1874,1,1
0000981949,8,0.2537,0.5637,-0.3484,0.7046,-749,-22,318,-1975,43,455,26,147,65,300.6806,76.2094,-8.5288,1,1
0000981970,8,0.2571,0.5659,-0.3470,0.7023,-758,-14,309,-1931,71,463,68,169,57,301.1491,76.7300,-7.9145,1,1
0000981991,8,0.2612,0.5678,-0.3463,0.6996,-758,-14,309,-1947,-3,487,127,161,44,301.5380,77.2583,-7.2360,1,1
0000982012,8,0.2670,0.5695,-0.3466,0.6958,-766,-10,300,-2003,-55,407,139,158,33,301.8991,77.8785,-6.3570,1,1
0000982033,8,0.2712,0.5710,-0.3468,0.6929,-773,-1,293,-1995,-83,323,111,149,29,302.1007,78.3566,-5.7850,1,1
0000982054,8,0.2744,0.5727,-0.3464,0.6905,-781,3,284,-2015,-131,379,53,136,36,302.3974,78.7954,-5.2538,1,1
0000982075,8,0.2763,0.5748,-0.3447,0.6888,-785,6,273,-1991,-15,399,-28,135,42,302.8414,79.2157,-4.8166,1,1
0000982096,8,0.2775,0.5773,-0.3422,0.6874,-785,6,273,-1979,83,307,-34,135,51,303.4630,79.6387,-4.3244,1,1
0000982117,8,0.2798,0.5803,-0.3394,0.6854,-793,6,265,-1999,119,283,-4,149,43,304.3497,80.2015,-3.5127,1,1
0000982138,8,0.2823,0.5825,-0.3382,0.6831,-799,11,254,-2039,43,347,63,152,31,304.8275,80.6718,-2.9371,1,1
0000982159,8,0.2859,0.5843,-0.3380,0.6802,-806,16,245,-1971,-31,327,102,153,26,305.2387,81.1426,-2.2418,1,1
0000982180,8,0.2894,0.5859,-0.3378,0.6774,-814,21,237,-1971,-35,231,94,145,29,305.7008,81.6000,-1.4923,1,1
0000982201,8,0.2929,0.5872,-0.3377,0.6748,-814,21,237,-1923,-103,215,100,131,32,306.3361,82.0255,-0.5569,1,1
0000982222,8,0.2963,0.5889,-0.3374,0.6720,-817,24,230,-1955,-131,219,43,111,24,307.0460,82.4797,0.4095,1,1
0000982243,8,0.2977,0.5905,-0.3360,0.6706,-823,30,222,-2047,-47,231,-32,103,35,307.7957,82.8019,1.1502,1,1
0000982264,8,0.2981,0.5926,-0.3333,0.6699,-827,32,215,-2059,99,179,-74,102,47,308.9482,83.1122,2.0889,1,1
0000982285,8,0.2988,0.5945,-0.3307,0.6693,-832,35,209,-2055,31,95,-42,96,51,310.3811,83.4071,3.3384,1,1
0000982306,8,0.2998,0.5960,-0.3286,0.6685,-832,35,209,-1955,-75,99,-51,80,51,311.9651,83.6775,4.8149,1,1
0000982327,8,0.2998,0.5979,-0.3251,0.6686,-833,38,205,-1979,-19,99,-102,54,55,314.0416,83.9126,6.5737,1,1
0000982348,8,0.2992,0.5992,-0.3220,0.6691,-835,41,203,-2007,59,107,-108,47,53,315.8082,84.0413,7.9993,1,1
0000982369,8,0.2987,0.6004,-0.3193,0.6696,-837,44,199,-2027,103,131,-78,41,48,317.4973,84.1522,9.3929,1,1
0000982390,8,0.2990,0.6012,-0.3175,0.6696,-836,46,198,-1971,71,151,-19,37,38,318.9640,84.2504,10.7260,1,1
0000982411,8,0.2998,0.6015,-0.3166,0.6695,-836,46,198,-1899,3,167,-7,20,33,320.2179,84.3216,11.9622,1,1
0000982432,8,0.3000,0.6017,-0.3152,0.6698,-838,51,198,-1975,7,159,-48,8,32,321.5965,84.3450,13.2276,1,1
0000982453,8,0.2995,0.6021,-0.3137,0.6703,-836,53,199,-2015,63,211,-48,12,24,322.4954,84.3563,13.9631,1,1
0000982474,8,0.2995,0.6025,-0.3128,0.6704,-838,54,197,-1975,103,211,-10,16,19,323.2487,84.3854,14.6296,1,1
0000982495,8,0.3003,0.6024,-0.3127,0.6702,-837,54,198,-1983,39,179,35,13,16,323.9099,84.4152,15.3517,1,1
0000982516,8,0.3013,0.6023,-0.3129,0.6698,-837,54,198,-1991,3,187,22,18,11,324.4485,84.4492,15.9962,1,1
0000982537,8,0.3020,0.6025,-0.3127,0.6694,-837,59,197,-1983,55,199,5,19,11,325.1054,84.5092,16.6952,1,1
0000982558,8,0.3026,0.6026,-0.3126,0.6690,-839,59,197,-1967,87,195,25,16,8,325.5623,84.5525,17.1975,1,1
0000982579,8,0.3036,0.6024,-0.3131,0.6685,-838,60,195,-1947,91,187,55,16,5,325.9195,84.5932,17.6898,1,1
0000982600,8,0.3049,0.6021,-0.3139,0.6678,-840,63,196,-1959,79,159,66,11,4,326.1892,84.6298,18.1534,1,1
0000982621,8,0.3061,0.6017,-0.3147,0.6672,-840,63,196,-1991,83,127,47,7,6,326.4710,84.6465,18.6149,1,1
0000982642,8,0.3073,0.6014,-0.3154,0.6666,-841,66,194,-2015,47,163,40,11,3,326.8121,84.6741,19.1214,1,1
0000982663,8,0.3082,0.6013,-0.3159,0.6661,-841,67,194,-2035,43,183,39,11,2,327.0141,84.7052,19.4441,1,1
0000982684,8,0.3090,0.6012,-0.3163,0.6656,-841,67,193,-2043,79,167,33,14,1,327.2200,84.7417,19.7587,1,1
0000982705,8,0.3098,0.6012,-0.3168,0.6650,-841,67,193,-1991,47,147,45,18,0,327.4209,84.7930,20.0821,1,1
0000982726,8,0.3107,0.6011,-0.3174,0.6644,-842,66,191,-1987,11,135,30,11,0,327.6032,84.8412,20.3939,1,1
0000982747,8,0.3111,0.6012,-0.3175,0.6641,-843,69,192,-1967,63,135,-4,7,2,327.7931,84.8735,20.6320,1,1
0000982768,8,0.3111,0.6013,-0.3173,0.6641,-843,68,190,-1983,79,175,-2,4,2,327.9584,84.8875,20.7768,1,1
0000982789,8,0.3114,0.6013,-0.3174,0.6639,-843,69,191,-1987,83,179,18,8,0,328.0895,84.9049,20.9402,1,1
0000982810,8,0.3119,0.6013,-0.3178,0.6635,-843,69,191,-1979,43,175,29,9,-3,328.1186,84.9344,21.0530,1,1
0000982831,8,0.3124,0.6012,-0.3183,0.6631,-845,69,188,-1987,51,147,30,7,-4,328.0887,84.9622,21.1173,1,1
0000982852,8,0.3129,0.6011,-0.3187,0.6627,-844,70,189,-2011,67,139,13,5,-2,328.0632,84.9878,21.1714,1,1
0000982873,8,0.3132,0.6012,-0.3189,0.6624,-846,69,188,-1999,39,187,17,11,-3,328.0935,85.0165,21.2453,1,1
0000982894,8,0.3136,0.6013,-0.3192,0.6620,-846,69,187,-1995,31,179,20,13,-6,328.0652,85.0575,21.2799,1,1
0000982915,8,0.3139,0.6014,-0.3195,0.6616,-846,69,187,-1995,63,135,15,14,-6,328.0465,85.1046,21.3113,1,1
0000982936,8,0.3142,0.6016,-0.3197,0.6612,-849,67,185,-2023,59,103,15,11,-5,328.0207,85.1487,21.3358,1,1
0000982957,8,0.3144,0.6017,-0.3199,0.6609,-848,68,185,-2039,39,95,6,9,-4,327.9872,85.1826,21.3387,1,1
0000982978,8,0.3144,0.6020,-0.3199,0.6606,-850,66,185,-2035,51,127,-8,7,-5,327.9182,85.2235,21.2694,1,1
0000982999,8,0.3142,0.6022,-0.3197,0.6606,-849,65,184,-2023,83,119,-13,7,-2,327.9022,85.2489,21.2114,1,1
0000983020,8,0.3141,0.6024,-0.3196,0.6605,-849,65,184,-2023,47,103,-4,6,0,327.9744,85.2702,21.2623,1,1
0000983041,8,0.3140,0.6026,-0.3193,0.6605,-850,65,182,-2007,35,111,-18,2,2,328.1026,85.2853,21.3602,1,1
0000983062,8,0.3137,0.6028,-0.3189,0.6607,-850,67,183,-1999,59,123,-24,-1,3,328.2174,85.2844,21.4069,1,1
0000983083,8,0.3132,0.6029,-0.3184,0.6611,-849,66,183,-1995,55,123,-23,-5,5,328.3668,85.2626,21.4620,1,1
0000983104,8,0.3128,0.6030,-0.3180,0.6615,-849,65,184,-1991,47,131,-22,-6,4,328.4417,85.2399,21.4656,1,1
0000983125,8,0.3124,0.6030,-0.3177,0.6618,-849,65,184,-1995,63,151,-17,-7,1,328.4333,85.2156,21.3984,1,1
0000983146,8,0.3122,0.6029,-0.3175,0.6620,-848,62,184,-1991,59,151,-7,-7,0,328.3508,85.1933,21.2787,1,1
0000983167,8,0.3120,0.6029,-0.3175,0.6621,-848,65,186,-2003,59,183,-2,-4,-2,328.2249,85.1779,21.1390,1,1
0000983188,8,0.3119,0.6029,-0.3176,0.6621,-848,65,183,-1999,75,183,2,0,-3,328.0640,85.1751,20.9800,1,1
0000983209,8,0.3120,0.6029,-0.3177,0.6620,-848,64,185,-2007,55,163,4,4,-3,327.9858,85.1858,20.9152,1,1
0000983230,8,0.3120,0.6030,-0.3178,0.6619,-848,64,185,-2011,35,147,2,6,-2,327.9630,85.2065,20.9044,1,1
0000983251,8,0.3120,0.6032,-0.3177,0.6617,-850,62,184,-1995,43,131,-8,7,0,328.0083,85.2301,20.9374,1,1
0000983272,8,0.3119,0.6034,-0.3175,0.6617,-848,64,183,-2003,43,115,-9,4,0,328.0698,85.2477,20.9701,1,1
0000983293,8,0.3117,0.6036,-0.3173,0.6617,-850,64,184,-1999,43,131,-10,3,0,328.1212,85.2624,20.9840,1,1
0000983314,8,0.3115,0.6037,-0.3171,0.6618,-849,63,185,-1999,67,123,-11,1,0,328.1397,85.2688,20.9673,1,1
0000983335,8,0.3114,0.6038,-0.3169,0.6619,-849,63,185,-2023,51,139,-6,1,0,328.1625,85.2721,20.9617,1,1
0000983356,8,0.3113,0.6038,-0.3169,0.6618,-850,62,183,-2015,43,143,4,1,-1,328.1585,85.2776,20.9529,1,1
0000983377,8,0.3115,0.6038,-0.3170,0.6617,-850,65,184,-2019,39,131,7,2,0,328.1376,85.2848,20.9520,1,1
0000983398,8,0.3116,0.6038,-0.3171,0.6616,-849,62,183,-2003,47,127,6,1,0,328.1355,85.2957,20.9776,1,1
0000983419,8,0.3117,0.6038,-0.3172,0.6616,-849,65,183,-1995,47,127,0,0,1,328.1667,85.2959,21.0167,1,1
0000983440,8,0.3117,0.6038,-0.3171,0.6616,-849,65,183,-2003,43,143,-3,0,3,328.2496,85.2906,21.0918,1,1
0000983461,8,0.3116,0.6038,-0.3170,0.6617,-848,62,183,-1995,55,135,-2,-1,3,328.3378,85.2842,21.1660,1,1
0000983482,8,0.3117,0.6037,-0.3169,0.6618,-848,63,183,-1991,39,151,3,-2,3,328.4274,85.2752,21.2565,1,1
0000983503,8,0.3117,0.6037,-0.3168,0.6619,-849,65,183,-1995,27,139,-7,-2,3,328.5164,85.2631,21.3391,1,1
0000983524,8,0.3115,0.6037,-0.3166,0.6621,-848,65,184,-2007,59,147,-14,-2,4,328.6101,85.2500,21.3932,1,1
0000983545,8,0.3114,0.6037,-0.3164,0.6622,-848,65,184,-2003,63,143,-5,0,3,328.7187,85.2429,21.4723,1,1
0000983566,8,0.3114,0.6037,-0.3163,0.6622,-848,65,184,-2003,59,143,5,1,2,328.8349,85.2413,21.5914,1,1
0000983587,8,0.3116,0.6036,-0.3164,0.6621,-847,63,183,-2003,51,123,4,0,1,328.9113,85.2415,21.6868,1,1
0000983608,8,0.3116,0.6036,-0.3164,0.6622,-848,67,184,-2023,51,123,-4,-1,1,328.9801,85.2362,21.7554,1,1
0000983629,8,0.3115,0.6037,-0.3162,0.6623,-848,67,184,-2019,79,139,-9,0,1,329.0518,85.2350,21.8018,1,1
0000983650,8,0.3115,0.6037,-0.3161,0.6622,-847,65,184,-2019,79,143,4,2,0,329.0940,85.2388,21.8388,1,1
0000983671,8,0.3117,0.6037,-0.3163,0.6621,-846,67,184,-2003,67,143,7,2,-1,329.1101,85.2479,21.8778,1,1
0000983692,8,0.3118,0.6037,-0.3164,0.6620,-848,65,184,-1991,59,143,7,5,0,329.1433,85.2614,21.9347,1,1
0000983713,8,0.3119,0.6038,-0.3164,0.6618,-846,67,183,-1987,63,139,1,4,-1,329.1670,85.2803,21.9739,1,1
0000983734,8,0.3120,0.6038,-0.3165,0.6617,-846,67,183,-1999,67,151,3,3,-3,329.1296,85.2944,21.9449,1,1
0000983755,8,0.3121,0.6039,-0.3166,0.6616,-848,65,185,-1995,47,151,7,5,-3,329.0879,85.3128,21.9204,1,1
0000983776,8,0.3122,0.6040,-0.3168,0.6613,-846,65,183,-2007,31,135,9,9,-5,329.0340,85.3406,21.8976,1,1
0000983797,8,0.3123,0.6042,-0.3168,0.6611,-848,63,181,-1991,43,139,1,11,-6,328.9754,85.3786,21.8510,1,1
0000983818,8,0.3123,0.6045,-0.3169,0.6608,-850,65,180,-1987,59,131,3,9,-7,328.8443,85.4248,21.7294,1,1
0000983839,8,0.3124,0.6047,-0.3172,0.6605,-850,65,180,-1987,63,123,10,8,-9,328.6616,85.4599,21.5719,1,1
0000983860,8,0.3125,0.6048,-0.3174,0.6602,-848,62,180,-1975,55,123,7,6,-8,328.4394,85.4918,21.3793,1,1
0000983881,8,0.3124,0.6049,-0.3175,0.6601,-849,65,180,-1983,39,123,-3,1,-7,328.1940,85.5109,21.1373,1,1
0000983902,8,0.3121,0.6051,-0.3175,0.6601,-850,60,181,-1999,63,131,-18,0,-8,327.9178,85.5194,20.8266,1,1
0000983923,8,0.3116,0.6053,-0.3174,0.6601,-850,60,179,-2019,51,147,-8,1,-10,327.4884,85.5345,20.3470,1,1
0000983944,8,0.3114,0.6055,-0.3175,0.6600,-850,60,179,-2007,71,143,-2,4,-11,327.1403,85.5558,19.9872,1,1
0000983965,8,0.3112,0.6057,-0.3177,0.6598,-849,59,177,-2011,75,147,-2,5,-11,326.7717,85.5838,19.6170,1,1
0000983986,8,0.3110,0.6060,-0.3176,0.6597,-851,59,179,-2019,87,159,-9,11,-10,326.4898,85.6189,19.3124,1,1
0000984007,8,0.3109,0.6064,-0.3177,0.6593,-851,57,177,-2007,47,167,5,16,-13,326.2272,85.6730,19.0464,1,1
0000984028,8,0.3110,0.6069,-0.3180,0.6587,-851,54,175,-2003,51,139,9,22,-14,325.8518,85.7655,18.7108,1,1
0000984049,8,0.3111,0.6074,-0.3183,0.6580,-851,54,175,-1983,35,111,11,24,-17,325.5327,85.8508,18.4244,1,1
0000984070,8,0.3111,0.6078,-0.3185,0.6575,-855,54,174,-1995,27,115,0,21,-17,325.1083,85.9328,18.0202,1,1
0000984091,8,0.3110,0.6084,-0.3186,0.6570,-855,51,171,-1999,31,119,0,21,-18,324.6587,86.0119,17.5650,1,1
0000984112,8,0.3110,0.6089,-0.3189,0.6564,-857,48,169,-2015,31,111,9,21,-20,324.1225,86.0932,17.0486,1,1
0000984133,8,0.3111,0.6095,-0.3194,0.6556,-859,46,166,-2019,19,87,18,23,-22,323.3033,86.2009,16.2847,1,1
0000984154,8,0.3113,0.6099,-0.3200,0.6548,-859,46,166,-2019,19,67,20,20,-23,322.5301,86.2870,15.5777,1,1
0000984175,8,0.3114,0.6102,-0.3205,0.6542,-858,44,163,-2015,31,71,17,15,-22,321.6793,86.3547,14.7862,1,1
0000984196,8,0.3113,0.6105,-0.3210,0.6537,-861,43,164,-2003,43,107,7,13,-21,320.8176,86.4144,13.9602,1,1
0000984217,8,0.3113,0.6108,-0.3214,0.6532,-861,40,161,-1991,31,103,19,14,-17,320.0724,86.4719,13.2510,1,1
0000984238,8,0.3116,0.6111,-0.3221,0.6525,-862,41,161,-1983,7,75,29,12,-18,319.1624,86.5373,12.4388,1,1
0000984259,8,0.3120,0.6111,-0.3229,0.6519,-862,41,161,-1959,-11,67,27,7,-18,318.3077,86.5808,11.6784,1,1
0000984280,8,0.3120,0.6111,-0.3234,0.6516,-862,35,159,-2019,11,59,10,-2,-13,317.5361,86.5938,10.9603,1,1
0000984301,8,0.3119,0.6110,-0.3238,0.6515,-862,36,160,-2051,43,63,12,-8,-11,316.8332,86.5811,10.2877,1,1
0000984322,8,0.3121,0.6107,-0.3245,0.6514,-862,34,161,-2063,35,67,36,-14,-7,316.2830,86.5551,9.8077,1,1
0000984343,8,0.3128,0.6100,-0.3257,0.6512,-861,36,163,-2007,-3,67,52,-17,-4,315.7701,86.4981,9.4684,1,1
0000984364,8,0.3135,0.6091,-0.3269,0.6510,-861,36,163,-1963,-19,59,62,-25,-6,315.3194,86.4352,9.1956,1,1
0000984385,8,0.3143,0.6080,-0.3284,0.6509,-861,38,166,-1955,-23,55,69,-38,-5,314.7686,86.3370,8.8524,1,1
0000984406,8,0.3149,0.6066,-0.3299,0.6512,-859,38,169,-1983,-7,63,61,-53,0,314.2804,86.1942,8.5629,1,1
0000984427,8,0.3154,0.6051,-0.3312,0.6516,-857,39,174,-2015,35,79,60,-62,3,313.9613,86.0154,8.4156,1,1
0000984448,8,0.3165,0.6028,-0.3335,0.6521,-855,42,179,-2003,-27,103,98,-64,1,313.5880,85.7753,8.3450,1,1
0000984469,8,0.3177,0.6008,-0.3357,0.6523,-855,42,179,-1991,-55,115,101,-68,0,313.1622,85.5736,8.2385,1,1
0000984490,8,0.3186,0.5987,-0.3378,0.6526,-852,46,184,-2019,-7,107,91,-68,-1,312.7332,85.3663,8.0949,1,1
0000984511,8,0.3198,0.5966,-0.3401,0.6528,-848,48,190,-1971,-31,107,116,-69,-4,312.2695,85.1600,7.9583,1,1
0000984532,8,0.3211,0.5942,-0.3428,0.6529,-844,49,195,-1955,-3,79,116,-86,-6,311.6557,84.9320,7.7179,1,1
0000984553,8,0.3224,0.5910,-0.3463,0.6534,-840,53,203,-1983,79,91,122,-97,-8,310.8616,84.5845,7.3684,1,1
0000984574,8,0.3238,0.5879,-0.3496,0.6536,-840,53,203,-1963,0,151,156,-107,-14,310.0756,84.2778,7.0275,1,1
0000984595,8,0.3252,0.5846,-0.3533,0.6539,-834,56,211,-1991,15,167,145,-118,-16,309.1985,83.9364,6.6244,1,1
0000984616,8,0.3261,0.5814,-0.3568,0.6545,-827,58,220,-2015,103,155,136,-126,-18,308.3289,83.5691,6.1733,1,1
0000984637,8,0.3271,0.5778,-0.3607,0.6550,-823,59,231,-2047,187,155,172,-142,-29,307.3582,83.1730,5.6738,1,1
0000984658,8,0.3288,0.5725,-0.3667,0.6555,-816,63,241,-2167,383,127,208,-162,-34,305.9269,82.6069,4.9759,1,1
0000984679,8,0.3308,0.5674,-0.3724,0.6557,-816,63,241,-2155,375,167,260,-189,-34,304.8647,82.0769,4.6543,1,1
0000984700,8,0.3328,0.5609,-0.3793,0.6563,-809,70,258,-2227,207,87,268,-258,-39,303.7028,81.3904,4.3648,1,1
0000984721,8,0.3323,0.5546,-0.3840,0.6592,-799,73,280,-1763,-23,783,53,-288,18,303.1183,80.5405,4.2109,1,1
0000984742,8,0.3279,0.5488,-0.3850,0.6656,-785,75,310,-1499,83,1099,-191,-449,71,303.5148,79.4448,4.3425,1,1
0000984763,8,0.3187,0.5386,-0.3860,0.6778,-785,75,310,-1763,55,1031,-120,-569,62,304.1058,77.4512,4.2740,1,1
0000984784,8,0.3124,0.5279,-0.3891,0.6872,-770,73,351,-1507,-159,1515,-32,-597,59,304.3042,75.6370,4.2983,1,1
0000984805,8,0.3059,0.5156,-0.3931,0.6972,-751,74,397,-1655,147,1323,-10,-698,53,304.3783,73.6191,4.2967,1,1
0000984826,8,0.3005,0.5006,-0.3998,0.7066,-733,78,452,-1751,143,1183,183,-718,13,304.1305,71.3889,4.3710,1,1
0000984847,8,0.2985,0.4843,-0.4098,0.7131,-715,86,502,-1571,-55,979,360,-670,-32,303.4678,69.2762,4.6814,1,1
0000984868,8,0.2981,0.4647,-0.4227,0.7187,-715,86,502,-1603,-367,875,342,-582,-34,302.5169,66.9224,5.2140,1,1
0000984889,8,0.2971,0.4518,-0.4303,0.7228,-702,93,546,-1663,-595,767,191,-471,6,302.0562,65.3468,5.5902,1,1
0000984910,8,0.2931,0.4443,-0.4326,0.7277,-694,93,580,-1639,-847,1187,-128,-313,58,302.0250,64.1886,5.5581,1,1
0000984931,8,0.2851,0.4447,-0.4284,0.7331,-696,75,589,-2527,-43,-1099,-482,-31,57,302.3761,63.6774,4.7932,1,1
0000984952,8,0.2774,0.4572,-0.4187,0.7340,-721,42,557,-1899,603,879,-581,455,-11,302.6601,64.6153,3.2649,1,1
0000984973,8,0.2750,0.4717,-0.4125,0.7292,-721,42,557,-2271,679,2179,-26,283,-121,302.1057,66.1704,1.6885,1,1
0000984994,8,0.2784,0.4743,-0.4166,0.7239,-740,23,536,-3007,903,171,256,189,-177,300.9170,66.7242,1.1520,1,1
0000985015,8,0.2835,0.4790,-0.4201,0.7167,-763,21,524,-1835,31,791,100,336,-161,299.6351,67.6395,0.5825,1,1
0000985036,8,0.2836,0.4865,-0.4192,0.7122,-782,5,508,-2431,-59,379,-170,263,-96,298.6154,68.5403,-0.6145,1,1
0000985057,8,0.2800,0.4950,-0.4150,0.7102,-798,-15,492,-1739,-283,667,-330,240,-72,297.9310,69.3055,-2.1289,1,1
0000985078,8,0.2767,0.5026,-0.4118,0.7080,-798,-15,492,-1743,-179,411,-79,222,-115,297.0357,69.9751,-3.7070,1,1
0000985099,8,0.2773,0.5089,-0.4132,0.7024,-813,-32,478,-1771,-239,523,52,196,-157,295.2456,70.7481,-5.3823,1,1
0000985120,8,0.2775,0.5131,-0.4148,0.6984,-823,-42,466,-1943,-11,567,-33,165,-138,293.7128,71.2318,-6.8007,1,1
0000985141,8,0.2752,0.5181,-0.4147,0.6957,-833,-59,458,-1923,103,555,-144,133,-131,292.2471,71.6227,-8.5272,1,1
0000985162,8,0.2720,0.5229,-0.4140,0.6937,-838,-77,448,-1927,-59,487,-126,109,-121,290.8647,71.9263,-10.2988,1,1
0000985183,8,0.2696,0.5268,-0.4141,0.6917,-838,-77,448,-1935,-383,543,-62,96,-126,289.4670,72.1616,-11.9414,1,1
0000985204,8,0.2673,0.5309,-0.4151,0.6887,-846,-94,443,-1903,-251,519,-64,93,-123,287.6399,72.4112,-13.9038,1,1
0000985225,8,0.2652,0.5342,-0.4154,0.6868,-851,-106,436,-1939,-291,455,-89,79,-103,286.3179,72.5796,-15.4113,1,1
0000985246,8,0.2619,0.5376,-0.4146,0.6859,-852,-121,430,-1879,-315,523,-193,51,-84,285.2355,72.6868,-16.8853,1,1
0000985267,8,0.2566,0.5416,-0.4119,0.6864,-857,-140,425,-1927,-135,459,-268,27,-60,284.4306,72.7291,-18.4505,1,1
0000985288,8,0.2518,0.5450,-0.4095,0.6869,-857,-140,425,-1903,-415,567,-165,27,-62,283.7618,72.7427,-19.7830,1,1
0000985309,8,0.2472,0.5484,-0.4078,0.6869,-856,-156,421,-1943,-307,595,-167,22,-62,282.8508,72.7516,-21.2771,1,1
0000985330,8,0.2436,0.5510,-0.4061,0.6872,-859,-164,416,-1983,-319,707,-171,27,-42,282.2751,72.7560,-22.3530,1,1
0000985351,8,0.2403,0.5538,-0.4040,0.6873,-861,-175,411,-1943,-223,587,-164,42,-39,281.7528,72.8202,-23.3673,1,1
0000985372,8,0.2379,0.5562,-0.4027,0.6869,-864,-183,405,-1923,-231,719,-68,60,-43,281.1376,72.8983,-24.3313,1,1
0000985393,8,0.2371,0.5584,-0.4021,0.6857,-864,-183,405,-1939,-247,699,-65,93,-32,280.4420,73.0529,-25.1677,1,1
0000985414,8,0.2358,0.5621,-0.4002,0.6843,-869,-192,397,-1967,-215,523,-116,101,-15,279.6020,73.3473,-26.3304,1,1
0000985435,8,0.2347,0.5653,-0.3981,0.6833,-873,-195,389,-1935,-155,467,-107,108,-14,278.9695,73.6152,-27.2816,1,1
0000985456,8,0.2341,0.5684,-0.3964,0.6820,-881,-201,379,-1935,-203,451,-68,111,-18,278.2389,73.8940,-28.2462,1,1
0000985477,8,0.2342,0.5708,-0.3955,0.6804,-885,-203,372,-1947,-239,419,-14,96,-22,277.4774,74.1479,-29.0947,1,1
0000985498,8,0.2348,0.5726,-0.3954,0.6787,-885,-203,372,-1939,-195,383,31,84,-28,276.7292,74.3555,-29.8116,1,1
0000985519,8,0.2367,0.5738,-0.3967,0.6763,-892,-206,368,-1943,-263,343,98,73,-36,275.7587,74.5552,-30.5016,1,1
0000985540,8,0.2391,0.5739,-0.3989,0.6741,-894,-205,368,-1931,-439,331,132,58,-32,275.0220,74.6720,-30.8264,1,1
0000985561,8,0.2413,0.5737,-0.4007,0.6724,-896,-204,367,-1975,-571,379,92,40,-11,274.5349,74.7607,-30.9555,1,1
0000985582,8,0.2427,0.5737,-0.4011,0.6716,-901,-198,366,-1923,-547,467,18,34,27,274.3722,74.8680,-30.9505,1,1
0000985603,8,0.2438,0.5740,-0.4004,0.6714,-901,-198,366,-1955,-431,399,17,30,52,274.5450,75.0131,-30.7532,1,1
0000985624,8,0.2463,0.5733,-0.3999,0.6714,-901,-194,363,-1975,-351,103,79,9,63,275.1331,75.1991,-29.9927,1,1
0000985645,8,0.2485,0.5719,-0.4001,0.6716,-902,-182,368,-1959,-267,-95,75,-35,53,275.7986,75.2555,-29.1135,1,1
0000985666,8,0.2494,0.5695,-0.4005,0.6732,-896,-177,373,-1915,-511,91,21,-116,59,276.8538,75.1107,-27.9319,1,1
0000985687,8,0.2468,0.5669,-0.3985,0.6774,-896,-177,373,-2067,-343,111,-197,-213,104,278.6537,74.7491,-26.5251,1,1
0000985708,8,0.2403,0.5649,-0.3926,0.6849,-882,-173,387,-2051,-207,203,-427,-277,175,281.4030,74.2419,-24.8812,1,1
0000985729,8,0.2297,0.5630,-0.3816,0.6962,-872,-172,398,-2027,-107,659,-493,-268,205,285.3434,73.5807,-22.8696,1,1
0000985750,8,0.2210,0.5622,-0.3711,0.7052,-855,-169,405,-2035,499,859,-523,-230,240,288.5669,73.1460,-21.3492,1,1
0000985771,8,0.2129,0.5619,-0.3587,0.7144,-848,-164,410,-2015,127,951,-568,-207,315,292.1792,72.8409,-19.5712,1,1
0000985792,8,0.2030,0.5630,-0.3437,0.7237,-848,-164,410,-1703,-295,1107,-769,-151,309,295.7796,72.6332,-18.1809,1,1
0000985813,8,0.1894,0.5668,-0.3247,0.7331,-842,-169,405,-1711,-11,931,-837,-99,310,299.3133,72.5590,-17.5312,1,1
0000985834,8,0.1772,0.5706,-0.3057,0.7413,-843,-171,400,-1539,-239,807,-514,-26,222,302.8374,72.6191,-16.7443,1,1
0000985855,8,0.1731,0.5727,-0.2972,0.7441,-848,-173,395,-1535,-295,863,-239,30,128,304.4237,72.7908,-16.2663,1,1
0000985876,8,0.1732,0.5742,-0.2948,0.7439,-852,-169,388,-1691,-131,855,50,88,18,304.8402,73.0262,-16.0640,1,1
0000985897,8,0.1795,0.5745,-0.2999,0.7401,-852,-169,388,-1835,283,631,474,153,-96,303.9310,73.3472,-15.9995,1,1
0000985918,8,0.1934,0.5729,-0.3134,0.7323,-865,-160,386,-2007,339,563,948,212,-182,301.7966,73.7765,-15.7620,1,1
0000985939,8,0.2157,0.5688,-0.3342,0.7199,-875,-142,383,-2627,119,419,911,208,-144,298.7938,74.3915,-14.9937,1,1
0000985960,8,0.2290,0.5671,-0.3453,0.7119,-887,-126,380,-2455,-615,459,517,194,-82,297.0338,74.9034,-14.6017,1,1
0000985981,8,0.2340,0.5686,-0.3486,0.7075,-896,-125,371,-1763,-619,371,66,152,-30,295.9387,75.3694,-14.9883,1,1
0000986002,8,0.2345,0.5713,-0.3476,0.7056,-896,-125,371,-1751,-307,235,-28,116,-2,295.3881,75.7387,-15.5983,1,1
0000986023,8,0.2366,0.5727,-0.3482,0.7034,-901,-125,363,-1951,-163,275,182,93,-26,294.8675,76.0406,-15.8918,1,1
0000986044,8,0.2419,0.5723,-0.3522,0.6999,-908,-122,361,-1971,-271,359,204,61,-23,294.1092,76.3030,-15.8279,1,1
0000986065,8,0.2439,0.5723,-0.3536,0.6985,-908,-120,359,-1919,-207,403,19,29,0,293.8257,76.4180,-15.8154,1,1
0000986086,8,0.2428,0.5732,-0.3522,0.6989,-911,-122,358,-1963,-135,483,-119,6,13,293.8969,76.4676,-15.9759,1,1
0000986107,8,0.2401,0.5747,-0.3494,0.7000,-911,-122,358,-1971,-35,535,-167,9,11,294.0497,76.4948,-16.3111,1,1
0000986128,8,0.2381,0.5763,-0.3474,0.7004,-912,-128,355,-2043,15,535,-49,42,-8,294.0041,76.5679,-16.7283,1,1
0000986149,8,0.2387,0.5777,-0.3476,0.6989,-914,-128,351,-1991,-11,491,76,76,-33,293.3948,76.7637,-17.2662,1,1
0000986170,8,0.2413,0.5784,-0.3498,0.6963,-918,-128,346,-1959,-83,447,150,95,-47,292.4866,76.9858,-17.7556,1,1
0000986191,8,0.2443,0.5791,-0.3525,0.6933,-922,-127,342,-1935,-167,371,145,97,-50,291.4117,77.2239,-18.3369,1,1
0000986212,8,0.2465,0.5800,-0.3545,0.6908,-922,-127,342,-1939,-243,379,86,83,-42,290.4007,77.4374,-18.9802,1,1
0000986233,8,0.2472,0.5813,-0.3552,0.6891,-928,-131,337,-1943,-203,411,-12,70,-30,289.5715,77.6173,-19.6863,1,1
0000986254,8,0.2470,0.5835,-0.3547,0.6876,-931,-136,332,-1963,-127,395,-30,73,-24,288.6701,77.8369,-20.6659,1,1
0000986275,8,0.2471,0.5852,-0.3545,0.6861,-935,-136,327,-1991,-111,371,5,83,-29,287.8836,78.0353,-21.4658,1,1
0000986296,8,0.2479,0.5867,-0.3551,0.6843,-938,-140,320,-2003,-195,355,41,83,-34,286.9626,78.2366,-22.2743,1,1
0000986317,8,0.2488,0.5880,-0.3556,0.6826,-938,-140,320,-2003,-203,355,17,75,-28,286.0773,78.4220,-23.0471,1,1
0000986338,8,0.2492,0.5895,-0.3557,0.6811,-941,-144,316,-1983,-143,319,19,72,-23,285.2779,78.5963,-23.8087,1,1
0000986359,8,0.2505,0.5908,-0.3564,0.6791,-946,-144,312,-1951,-163,275,61,68,-26,284.2700,78.8059,-24.6409,1,1
0000986380,8,0.2520,0.5914,-0.3577,0.6774,-947,-144,308,-1951,-195,267,77,55,-27,283.4610,78.9396,-25.2069,1,1
0000986401,8,0.2532,0.5917,-0.3589,0.6760,-951,-144,306,-1979,-215,267,51,38,-22,282.7945,79.0320,-25.6652,1,1
0000986422,8,0.2536,0.5922,-0.3595,0.6751,-951,-144,306,-1971,-175,283,15,24,-19,282.2816,79.0864,-26.0866,1,1
0000986443,8,0.2537,0.5925,-0.3598,0.6746,-951,-149,304,-1979,-179,299,9,10,-17,281.8944,79.1087,-26.4389,1,1
0000986464,8,0.2537,0.5927,-0.3604,0.6742,-952,-147,304,-1971,-215,311,11,5,-16,281.5185,79.1086,-26.7624,1,1
0000986485,8,0.2535,0.5928,-0.3606,0.6740,-952,-149,303,-1967,-191,339,-9,0,-12,281.2901,79.0946,-26.9891,1,1
0000986506,8,0.2530,0.5931,-0.3605,0.6740,-951,-149,303,-1987,-155,339,-20,1,-11,281.1175,79.0802,-27.2147,1,1
0000986527,8,0.2525,0.5934,-0.3604,0.6740,-951,-149,303,-1987,-155,335,-15,2,-11,280.9407,79.0711,-27.4443,1,1
0000986548,8,0.2522,0.5936,-0.3604,0.6739,-952,-155,302,-1967,-179,323,-5,0,-11,280.7649,79.0605,-27.6463,1,1
0000986569,8,0.2518,0.5937,-0.3606,0.6739,-951,-154,302,-1975,-195,303,-2,-4,-10,280.6027,79.0305,-27.8198,1,1
0000986590,8,0.2516,0.5936,-0.3608,0.6739,-952,-155,305,-1979,-183,299,1,-7,-9,280.5083,79.0010,-27.9136,1,1
0000986611,8,0.2515,0.5935,-0.3611,0.6739,-950,-156,302,-1979,-183,307,6,-10,-8,280.4489,78.9645,-27.9566,1,1
0000986632,8,0.2513,0.5933,-0.3614,0.6740,-950,-156,302,-1979,-203,319,1,-13,-7,280.4256,78.9210,-27.9644,1,1
0000986653,8,0.2509,0.5931,-0.3615,0.6742,-951,-157,305,-1975,-167,343,-15,-15,-6,280.4497,78.8726,-27.9697,1,1
0000986674,8,0.2503,0.5930,-0.3615,0.6745,-951,-158,306,-1991,-163,355,-11,-12,-5,280.4823,78.8127,-27.9898,1,1
0000986695,8,0.2499,0.5930,-0.3615,0.6747,-949,-158,306,-1987,-171,371,-13,-9,-6,280.4845,78.7737,-28.0255,1,1
0000986716,8,0.2495,0.5931,-0.3614,0.6748,-951,-160,307,-1975,-163,371,-12,-1,-6,280.4282,78.7515,-28.1205,1,1
0000986737,8,0.2492,0.5933,-0.3613,0.6748,-951,-160,307,-1975,-147,347,-13,4,-8,280.3134,78.7459,-28.2736,1,1
0000986758,8,0.2489,0.5936,-0.3613,0.6746,-949,-162,304,-1971,-147,339,1,9,-13,280.0963,78.7531,-28.5090,1,1
0000986779,8,0.2487,0.5939,-0.3615,0.6744,-949,-162,306,-1975,-203,359,-12,4,-8,279.8369,78.7562,-28.7763,1,1
0000986800,8,0.2483,0.5942,-0.3612,0.6744,-951,-164,303,-1983,-211,343,-18,7,-4,279.7132,78.7647,-28.9579,1,1
0000986821,8,0.2483,0.5944,-0.3612,0.6742,-951,-164,304,-1983,-235,331,5,10,-3,279.5901,78.7866,-29.0886,1,1
0000986842,8,0.2485,0.5946,-0.3613,0.6739,-951,-164,304,-1975,-227,311,6,10,-3,279.4498,78.8097,-29.2024,1,1
0000986863,8,0.2486,0.5947,-0.3613,0.6738,-951,-165,304,-1975,-207,335,-1,7,0,279.3726,78.8303,-29.2686,1,1
0000986884,8,0.2487,0.5949,-0.3612,0.6736,-950,-162,302,-1983,-187,323,3,6,1,279.3228,78.8539,-29.3174,1,1
0000986905,8,0.2490,0.5949,-0.3613,0.6735,-951,-163,303,-1975,-191,315,15,6,2,279.2986,78.8759,-29.3064,1,1
0000986926,8,0.2494,0.5948,-0.3615,0.6733,-951,-162,302,-1975,-239,323,17,3,3,279.3020,78.8923,-29.2476,1,1
0000986947,8,0.2496,0.5947,-0.3615,0.6733,-951,-162,302,-1975,-195,315,0,-1,6,279.3687,78.9012,-29.1621,1,1
0000986968,8,0.2497,0.5946,-0.3613,0.6735,-951,-160,302,-1983,-167,319,-1,-3,8,279.5024,78.9071,-29.0439,1,1
0000986989,8,0.2499,0.5944,-0.3612,0.6736,-951,-160,303,-1983,-183,327,5,-3,9,279.6914,78.9119,-28.8510,1,1
0000987010,8,0.2500,0.5943,-0.3611,0.6737,-951,-158,302,-1987,-191,327,1,-4,9,279.8538,78.9174,-28.6804,1,1
0000987031,8,0.2501,0.5942,-0.3609,0.6739,-951,-158,302,-1967,-175,331,-4,-4,9,280.0203,78.9212,-28.5264,1,1
0000987052,8,0.2502,0.5940,-0.3607,0.6741,-952,-158,304,-1971,-155,335,0,-6,10,280.2121,78.9208,-28.3461,1,1
0000987073,8,0.2503,0.5938,-0.3606,0.6743,-949,-157,303,-1967,-151,339,4,-8,8,280.3942,78.9156,-28.1578,1,1
0000987094,8,0.2504,0.5936,-0.3606,0.6745,-950,-155,306,-1975,-147,343,2,-8,8,280.5807,78.9065,-27.9641,1,1
0000987115,8,0.2506,0.5933,-0.3605,0.6747,-949,-156,306,-1975,-211,363,5,-6,11,280.8256,78.9003,-27.7093,1,1
0000987136,8,0.2508,0.5930,-0.3604,0.6749,-949,-156,306,-1971,-187,315,2,-8,13,281.0528,78.8997,-27.4756,1,1
0000987157,8,0.2511,0.5925,-0.3605,0.6752,-949,-152,306,-1967,-163,299,23,-19,10,281.3279,78.8757,-27.1631,1,1
0000987178,8,0.2516,0.5918,-0.3609,0.6755,-949,-152,309,-1971,-191,319,24,-25,12,281.6460,78.8267,-26.7622,1,1
0000987199,8,0.2519,0.5910,-0.3611,0.6759,-948,-149,310,-1975,-187,335,10,-27,15,282.0201,78.7752,-26.3424,1,1
0000987220,8,0.2518,0.5904,-0.3608,0.6767,-947,-149,314,-1987,-183,371,-16,-25,20,282.5670,78.7161,-25.8328,1,1
0000987241,8,0.2516,0.5900,-0.3603,0.6773,-947,-149,314,-1983,-171,367,-10,-18,21,283.0131,78.6856,-25.4424,1,1
0000987262,8,0.2518,0.5895,-0.3601,0.6778,-945,-147,314,-1975,-171,363,12,-21,20,283.4282,78.6585,-25.0194,1,1
0000987283,8,0.2522,0.5888,-0.3601,0.6782,-945,-143,316,-1983,-155,351,15,-16,19,283.8298,78.6284,-24.5809,1,1
0000987304,8,0.2526,0.5883,-0.3601,0.6785,-946,-143,316,-1979,-155,371,13,-15,20,284.2075,78.6099,-24.1656,1,1
0000987325,8,0.2530,0.5877,-0.3599,0.6790,-944,-141,318,-1983,-151,391,3,-12,20,284.6766,78.5915,-23.6809,1,1
0000987346,8,0.2533,0.5874,-0.3596,0.6794,-944,-141,318,-1995,-151,387,0,-7,21,285.0361,78.5894,-23.3280,1,1
0000987367,8,0.2537,0.5871,-0.3594,0.6796,-945,-137,319,-1987,-175,363,16,-2,23,285.3752,78.6037,-22.9646,1,1
0000987388,8,0.2546,0.5866,-0.3593,0.6797,-942,-135,319,-1971,-187,307,28,-3,29,285.7667,78.6277,-22.5072,1,1
0000987409,8,0.2555,0.5859,-0.3593,0.6799,-945,-129,321,-1963,-191,287,31,-12,34,286.2854,78.6402,-21.9055,1,1
0000987430,8,0.2567,0.5848,-0.3592,0.6805,-942,-126,323,-1959,-207,279,31,-29,40,287.1128,78.6167,-20.9728,1,1
0000987451,8,0.2575,0.5835,-0.3590,0.6814,-942,-126,323,-1955,-191,275,20,-45,49,287.9910,78.5525,-20.0372,1,1
0000987472,8,0.2581,0.5820,-0.3586,0.6827,-941,-119,327,-1955,-187,291,12,-62,57,289.0549,78.4487,-18.9509,1,1
0000987493,8,0.2586,0.5801,-0.3582,0.6843,-938,-112,332,-1955,-195,275,10,-82,65,290.2864,78.2971,-17.7087,1,1
0000987514,8,0.2589,0.5779,-0.3577,0.6863,-933,-106,337,-1951,-163,243,-4,-106,74,291.6550,78.0958,-16.3506,1,1
0000987535,8,0.2587,0.5746,-0.3567,0.6897,-928,-98,351,-1935,-163,199,-17,-140,83,293.6349,77.7240,-14.4605,1,1
0000987556,8,0.2581,0.5711,-0.3559,0.6932,-928,-98,351,-1923,-171,179,-17,-183,91,295.3854,77.2987,-12.8081,1,1
0000987577,8,0.2571,0.5667,-0.3552,0.6975,-917,-89,361,-1903,-159,111,-24,-234,101,297.2731,76.7248,-11.0370,1,1
0000987598,8,0.2557,0.5612,-0.3547,0.7028,-904,-79,382,-1927,-171,75,-31,-296,113,299.2800,75.9673,-9.1688,1,1
0000987619,8,0.2530,0.5547,-0.3536,0.7095,-885,-72,402,-1967,-239,295,-112,-373,129,301.3468,74.9968,-7.3902,1,1
0000987640,8,0.2478,0.5458,-0.3514,0.7192,-864,-63,428,-1955,-151,463,-133,-403,129,303.7688,73.5791,-5.5399,1,1
0000987661,8,0.2438,0.5381,-0.3501,0.7269,-864,-63,428,-2123,163,523,-72,-406,129,305.4922,72.3751,-4.2107,1,1
0000987682,8,0.2418,0.5294,-0.3504,0.7338,-840,-53,453,-2167,147,543,45,-414,112,306.9214,71.1575,-2.8453,1,1
0000987703,8,0.2412,0.5194,-0.3526,0.7401,-813,-38,479,-2223,71,615,123,-433,88,307.9689,69.8674,-1.5527,1,1
0000987724,8,0.2408,0.5088,-0.3560,0.7460,-782,-20,511,-2467,15,467,175,-459,59,308.6646,68.5078,-0.4646,1,1
0000987745,8,0.2413,0.4944,-0.3616,0.7527,-747,-1,540,-2447,111,419,229,-471,61,309.2407,66.7526,0.8428,1,1
0000987766,8,0.2436,0.4811,-0.3668,0.7581,-747,-1,540,-2471,-183,583,324,-503,103,309.8026,65.2436,2.2550,1,1
0000987787,8,0.2451,0.4676,-0.3709,0.7640,-705,29,574,-2331,-143,867,176,-509,125,310.4345,63.6764,3.5745,1,1
0000987808,8,0.2438,0.4558,-0.3726,0.7707,-661,54,603,-2211,-15,779,58,-473,124,311.0722,62.1654,4.4360,1,1
0000987829,8,0.2401,0.4463,-0.3732,0.7771,-611,70,628,-1599,-383,859,-49,-435,61,311.4631,60.7873,4.7088,1,1
0000987850,8,0.2356,0.4353,-0.3756,0.7835,-569,82,648,-1223,-191,1395,34,-362,12,311.4599,59.2175,4.7294,1,0
0000987871,8,0.2313,0.4306,-0.3764,0.7870,-569,82,648,-1391,187,1023,-141,-188,-11,311.3174,58.4229,4.3705,1,0
0000987892,8,0.2271,0.4322,-0.3766,0.7873,-540,85,648,-1579,-135,463,-89,75,-122,310.8337,58.3888,3.5062,1,0
0000987913,8,0.2245,0.4394,-0.3775,0.7836,-530,75,630,-1403,-175,463,-201,308,-203,309.8232,59.1106,2.2353,1,0
0000987934,8,0.2205,0.4530,-0.3760,0.7777,-532,60,592,-1539,267,379,-268,575,-208,308.5555,60.4978,0.2684,1,0
0000987955,8,0.2204,0.4743,-0.3727,0.7666,-546,53,539,-1667,287,455,-144,759,-167,306.9326,63.0438,-1.9765,1,0
0000987976,8,0.2259,0.4933,-0.3695,0.7544,-546,53,539,-1907,175,547,0,918,-113,305.6657,65.6721,-3.3127,1,0
0000987997,8,0.2350,0.5136,-0.3656,0.7398,-565,60,476,-2011,-47,743,36,1051,-73,304.4105,68.7130,-4.3897,1,0
0000988018,8,0.2445,0.5360,-0.3593,0.7238,-587,67,403,-2043,-519,1167,-77,1148,-56,302.9581,72.0935,-5.8274,1,0
0000988039,8,0.2494,0.5608,-0.3492,0.7081,-605,67,335,-1703,-543,1127,-457,1118,-72,300.6071,75.5503,-8.8861,1,0
0000988060,8,0.2473,0.5914,-0.3323,0.6918,-605,67,335,-1767,-475,1195,-561,938,-66,295.4556,79.3246,-15.9289,1,1
0000988081,8,0.2431,0.6106,-0.3202,0.6823,-613,57,278,-1399,-115,1435,-493,655,-84,289.3692,81.4601,-23.5483,1,1
0000988102,8,0.2390,0.6219,-0.3137,0.6765,-611,49,253,-1187,-7,1503,-224,315,-108,283.1325,82.4958,-30.7535,1,1
0000988123,8,0.2370,0.6250,-0.3148,0.6738,-599,46,250,-1275,163,1315,64,-6,-150,279.0667,82.5527,-34.8963,1,1
0000988144,8,0.2380,0.6206,-0.3229,0.6738,-580,54,262,-4555,2243,-2163,429,-223,-125,278.6364,81.8746,-34.5042,1,1
0000988165,8,0.2434,0.6127,-0.3299,0.6756,-580,54,262,-2851,347,587,-68,-204,124,282.0306,81.3187,-29.9918,1,1
0000988186,8,0.2405,0.6079,-0.3293,0.6813,-567,65,279,-1683,191,427,84,-313,10,285.7740,80.6561,-26.5376,1,1
0000988207,8,0.2399,0.6016,-0.3341,0.6848,-551,74,298,-1807,-883,803,-16,-278,-43,287.4084,79.8039,-24.4928,1,1
0000988228,8,0.2277,0.6005,-0.3285,0.6926,-537,61,319,-1695,-467,679,-684,-321,-10,289.1273,78.9186,-24.3213,1,1
0000988249,8,0.2153,0.5996,-0.3214,0.7006,-521,53,332,-1899,-103,475,-394,-258,23,291.1774,78.1153,-23.9637,1,1
0000988270,8,0.2081,0.5966,-0.3199,0.7060,-521,53,332,-2243,439,267,-78,-220,-73,292.3153,77.2947,-23.5519,1,1
0000988291,8,0.2060,0.5922,-0.3246,0.7082,-509,48,344,-2055,71,595,193,-222,-131,292.1362,76.5243,-23.4685,1,1
0000988312,8,0.2068,0.5869,-0.3320,0.7089,-498,53,357,-1875,-847,767,190,-191,-111,291.6649,75.7962,-23.1794,1,1
0000988333,8,0.2011,0.5851,-0.3317,0.7122,-485,44,365,-1859,-795,683,-408,-186,-27,291.8913,75.1991,-23.4533,1,1
0000988354,8,0.1866,0.5874,-0.3217,0.7188,-476,20,377,-2011,119,419,-774,-187,37,292.9317,74.6842,-24.5470,1,1
0000988375,8,0.1705,0.5894,-0.3099,0.7263,-476,20,377,-2027,247,375,-428,-166,6,294.4121,74.1179,-25.4670,1,1
0000988396,8,0.1654,0.5881,-0.3082,0.7292,-465,8,382,-1915,-515,583,-83,-147,-36,294.8882,73.6726,-25.5632,1,1
0000988417,8,0.1604,0.5865,-0.3069,0.7322,-455,6,392,-1871,-507,567,-261,-166,-11,295.3476,73.1998,-25.6287,1,1
0000988438,8,0.1521,0.5859,-0.3018,0.7366,-445,-4,400,-1923,-135,495,-362,-183,13,296.2322,72.7206,-25.8777,1,1
0000988459,8,0.1464,0.5840,-0.2991,0.7403,-433,-6,411,-1979,-187,499,-42,-177,-19,297.0508,72.2218,-25.7634,1,1
0000988480,8,0.1452,0.5794,-0.3017,0.7431,-433,-6,411,-1939,-207,675,113,-167,-40,297.6137,71.5748,-25.0398,1,1
0000988501,8,0.1458,0.5754,-0.3051,0.7447,-424,-4,423,-1947,-231,771,125,-152,-41,297.8815,71.0817,-24.4020,1,1
0000988522,8,0.1463,0.5719,-0.3081,0.7460,-414,2,429,-1899,-183,827,102,-126,-37,298.0815,70.6480,-23.8721,1,1
0000988543,8,0.1471,0.5691,-0.3110,0.7468,-408,8,438,-1895,-151,875,131,-87,-43,298.1234,70.3103,-23.4848,1,1
0000988564,8,0.1495,0.5666,-0.3151,0.7466,-405,14,438,-1879,-195,871,235,-26,-57,297.9063,70.0866,-23.1238,1,1
0000988585,8,0.1548,0.5639,-0.3214,0.7448,-405,14,438,-1903,-355,771,272,3,-51,297.3743,69.9683,-22.6369,1,1
0000988606,8,0.1595,0.5620,-0.3260,0.7433,-405,21,438,-1923,-399,687,244,16,-26,297.0300,69.9548,-22.1704,1,1
0000988627,8,0.1640,0.5605,-0.3294,0.7419,-408,33,439,-1919,-459,655,212,22,7,296.9022,70.0075,-21.6065,1,1
0000988648,8,0.1682,0.5591,-0.3316,0.7411,-408,40,438,-1855,-451,539,173,12,37,297.0646,70.0855,-20.8802,1,1
0000988669,8,0.1722,0.5574,-0.3329,0.7408,-408,53,442,-1867,-427,491,150,-16,71,297.5158,70.1438,-19.9715,1,1
0000988690,8,0.1770,0.5545,-0.3337,0.7415,-408,53,442,-1879,-415,423,145,-49,98,298.5305,70.1319,-18.4516,1,1
0000988711,8,0.1807,0.5515,-0.3337,0.7429,-404,65,445,-1867,-407,463,119,-80,126,299.6955,70.0439,-16.9534,1,1
0000988732,8,0.1836,0.5479,-0.3327,0.7452,-397,83,456,-1859,-263,435,71,-121,150,301.1526,69.8582,-15.3189,1,1
0000988753,8,0.1858,0.5436,-0.3311,0.7485,-385,97,468,-1923,-195,427,56,-167,164,302.8432,69.5372,-13.5495,1,1
0000988774,8,0.1875,0.5384,-0.3293,0.7527,-367,116,483,-1975,-179,455,35,-231,184,304.6795,69.0641,-11.6934,1,1
0000988795,8,0.1891,0.5304,-0.3267,0.7591,-367,116,483,-2091,-167,555,41,-272,201,307.1574,68.2474,-9.2454,1,1
0000988816,8,0.1908,0.5229,-0.3249,0.7646,-347,133,502,-2279,-47,607,90,-303,204,309.1480,67.4570,-7.1900,1,1
0000988837,8,0.1935,0.5142,-0.3243,0.7700,-323,162,521,-2259,115,499,160,-337,192,310.9454,66.5518,-5.1374,1,1
0000988858,8,0.1968,0.5042,-0.3247,0.7757,-296,190,547,-2235,-99,551,179,-370,196,312.6068,65.4961,-3.0532,1,1
0000988879,8,0.1993,0.4936,-0.3246,0.7819,-263,221,575,-2307,-7,499,151,-430,214,314.1763,64.3179,-1.1685,1,1
0000988900,8,0.2018,0.4787,-0.3245,0.7904,-263,221,575,-2179,-7,519,147,-475,204,315.9833,62.5920,1.0304,1,1
0000988921,8,0.2029,0.4658,-0.3249,0.7977,-224,252,607,-2203,11,471,143,-527,188,317.1422,61.0382,2.4859,1,1
0000988942,8,0.2033,0.4518,-0.3259,0.8052,-181,290,642,-2255,-3,639,143,-571,170,318.0468,59.3320,3.7091,1,1
0000988963,8,0.2035,0.4370,-0.3273,0.8127,-132,325,674,-2487,-43,767,162,-586,157,318.7386,57.5148,4.7624,1,1
0000988984,8,0.2048,0.4223,-0.3295,0.8192,-84,372,706,-2455,-155,751,247,-544,142,319.2684,55.7771,5.8410,1,1
0000989005,8,0.2099,0.4040,-0.3338,0.8254,-84,372,706,-1763,-523,871,349,-480,125,319.7701,53.8131,7.4840,1,1
0000989026,8,0.2137,0.3907,-0.3373,0.8294,-38,425,731,-1287,-635,1515,259,-439,89,319.9561,52.3977,8.5690,1,1
0000989047,8,0.2121,0.3811,-0.3391,0.8335,4,464,758,-1083,-139,1767,-59,-350,27,319.9105,51.1828,8.7270,1,1
0000989068,8,0.2073,0.3768,-0.3406,0.8361,30,482,778,-1403,47,831,-39,-163,-109,319.4950,50.4718,8.1168,1,1
0000989089,8,0.2068,0.3769,-0.3461,0.8339,35,509,787,-1207,-87,863,116,61,-251,318.5040,50.5135,7.5875,1,1
0000989110,8,0.2074,0.3817,-0.3528,0.8287,35,509,787,-1035,7,967,39,297,-349,317.1520,51.1739,6.8239,1,1
0000989131,8,0.2072,0.3948,-0.3603,0.8194,16,522,790,-1111,167,811,-31,462,-379,315.1261,52.7701,5.2227,1,1
0000989152,8,0.2078,0.4093,-0.3650,0.8100,-15,531,785,-1315,423,667,-30,615,-376,313.4156,54.5629,3.7411,1,1
0000989173,8,0.2105,0.4266,-0.3688,0.7985,-65,538,773,-1535,519,699,5,763,-360,311.6287,56.7803,2.2423,1,1
0000989194,8,0.2154,0.4463,-0.3714,0.7852,-126,544,749,-1615,375,751,14,927,-318,309.8043,59.4035,0.7558,1,1
0000989215,8,0.2210,0.4683,-0.3717,0.7705,-126,544,749,-1779,11,967,-103,1044,-263,307.9234,62.3758,-0.9338,1,1
0000989236,8,0.2248,0.5005,-0.3657,0.7518,-194,538,721,-1907,-135,1119,-380,1126,-202,305.4748,66.4876,-4.0368,1,1
0000989257,8,0.2219,0.5298,-0.3542,0.7380,-267,506,691,-1983,-179,1283,-700,1154,-145,303.1212,69.9147,-8.0039,1,1
0000989278,8,0.2145,0.5602,-0.3374,0.7255,-334,457,663,-2219,-143,1299,-897,1107,-69,300.1498,73.2535,-13.3841,1,1
0000989299,8,0.2057,0.5880,-0.3182,0.7146,-334,457,663,-2163,-3,1251,-865,927,2,296.4662,76.2373,-19.7156,1,1
0000989320,8,0.1975,0.6106,-0.3008,0.7055,-389,419,641,-1723,63,1191,-677,701,-5,291.8394,78.6202,-26.6844,1,1
0000989341,8,0.1895,0.6295,-0.2864,0.6970,-425,389,620,-1535,111,1167,-424,449,-63,285.1007,80.4223,-35.4231,1,1
0000989362,8,0.1859,0.6372,-0.2832,0.6923,-446,376,610,-1519,35,915,-94,218,-128,280.1107,80.9328,-41.0190,1,1
0000989383,8,0.1853,0.6386,-0.2868,0.6896,-447,379,608,-1479,-459,883,156,-19,-156,277.0841,80.7877,-43.7751,1,1
0000989404,8,0.1852,0.6352,-0.2929,0.6902,-447,379,608,-2667,1279,-463,84,-196,-45,277.2128,80.1879,-43.1224,1,1
0000989425,8,0.1851,0.6315,-0.2953,0.6926,-437,386,618,-2871,739,11,161,-139,15,279.0870,79.7759,-41.0345,1,1
0000989446,8,0.1871,0.6250,-0.2996,0.6961,-427,398,624,-1943,-507,843,94,-306,1,282.0685,79.2040,-37.4794,1,1
0000989467,8,0.1820,0.6190,-0.2991,0.7030,-408,391,642,-1863,-1003,743,-267,-367,21,285.6235,78.2997,-34.3813,1,1
0000989488,8,0.1705,0.6168,-0.2926,0.7106,-392,363,668,-1591,-419,579,-577,-297,0,288.2805,77.4993,-33.2539,1,1
0000989509,8,0.1595,0.6151,-0.2856,0.7174,-392,363,668,-1999,-83,387,-345,-255,33,290.5739,76.8146,-32.4866,1,1
0000989530,8,0.1569,0.6115,-0.2857,0.7210,-377,352,681,-2047,-203,523,166,-183,-63,291.9886,76.2599,-31.2620,1,1
0000989551,8,0.1572,0.6061,-0.2912,0.7233,-368,360,686,-1843,-435,915,37,-181,-59,292.5130,75.5333,-30.2098,1,1
0000989572,8,0.1509,0.6044,-0.2883,0.7272,-356,344,699,-1955,-187,731,-392,-179,22,293.5432,75.0267,-29.9516,1,1
0000989593,8,0.1414,0.6047,-0.2811,0.7317,-348,319,709,-1999,-71,647,-432,-136,18,294.7267,74.6579,-30.1858,1,1
0000989614,8,0.1345,0.6049,-0.2766,0.7345,-348,319,709,-2043,35,539,-219,-85,-22,295.2910,74.3731,-30.5846,1,1
0000989635,8,0.1317,0.6045,-0.2765,0.7354,-343,307,717,-1923,-463,643,-8,-44,-62,295.1786,74.1335,-30.9373,1,1
0000989656,8,0.1288,0.6043,-0.2768,0.7359,-342,300,717,-1919,-499,651,-135,-29,-44,294.7889,73.9004,-31.5326,1,1
0000989677,8,0.1237,0.6056,-0.2738,0.7368,-342,283,722,-1971,-159,479,-254,-18,-22,294.6568,73.7926,-32.3515,1,1
0000989698,8,0.1191,0.6070,-0.2709,0.7375,-341,270,722,-1959,-263,507,-175,-8,-29,294.5013,73.7198,-33.1487,1,1
0000989719,8,0.1160,0.6080,-0.2698,0.7376,-341,270,722,-1935,-247,447,-92,4,-46,294.1329,73.6527,-33.8740,1,1
0000989740,8,0.1142,0.6087,-0.2698,0.7374,-342,264,722,-1923,-423,407,-44,1,-47,293.6666,73.5788,-34.4897,1,1
0000989761,8,0.1115,0.6093,-0.2693,0.7374,-343,255,723,-1951,-439,439,-106,-14,-29,293.2811,73.4736,-35.1352,1,1
0000989782,8,0.1084,0.6099,-0.2675,0.7380,-341,245,725,-1955,-287,487,-151,-22,-12,293.2490,73.3892,-35.5902,1,1
0000989803,8,0.1053,0.6105,-0.2655,0.7387,-341,235,728,-1943,-243,515,-125,-19,-10,293.2930,73.3196,-35.9759,1,1
0000989824,8,0.1033,0.6109,-0.2644,0.7391,-341,235,728,-1971,-279,519,-59,-11,-20,293.2590,73.2542,-36.2679,1,1
0000989845,8,0.1024,0.6111,-0.2645,0.7390,-341,231,726,-1935,-459,591,-2,7,-20,293.0865,73.2045,-36.5071,1,1
0000989866,8,0.1019,0.6116,-0.2647,0.7385,-341,229,726,-1899,-307,603,-19,30,-15,292.7498,73.2161,-36.8696,1,1
0000989887,8,0.1021,0.6125,-0.2650,0.7377,-344,229,723,-1935,-263,583,30,53,-18,292.3337,73.2941,-37.2483,1,1
0000989908,8,0.1035,0.6134,-0.2664,0.7363,-350,231,721,-1951,-259,519,88,71,-27,291.7016,73.4097,-37.6428,1,1
0000989929,8,0.1056,0.6142,-0.2684,0.7346,-350,231,721,-1959,-419,483,106,76,-25,290.9814,73.5409,-38.0172,1,1
0000989950,8,0.1075,0.6151,-0.2699,0.7329,-354,236,716,-1911,-487,475,40,74,-6,290.3273,73.6906,-38.3915,1,1
0000989971,8,0.1085,0.6168,-0.2698,0.7315,-357,236,711,-1935,-363,371,-10,71,11,289.7399,73.9123,-38.9174,1,1
0000989992,8,0.1094,0.6181,-0.2694,0.7304,-364,237,709,-1935,-391,375,24,69,17,289.3730,74.1120,-39.2498,1,1
0000990013,8,0.1110,0.6189,-0.2694,0.7294,-366,241,707,-1967,-495,339,44,58,28,289.1256,74.3059,-39.3578,1,1
0000990034,8,0.1125,0.6197,-0.2689,0.7287,-366,241,707,-1939,-351,491,5,52,46,289.0777,74.5096,-39.3364,1,1
0000990055,8,0.1136,0.6207,-0.2676,0.7281,-369,243,702,-1935,-207,459,9,64,50,289.1093,74.7439,-39.3285,1,1
0000990076,8,0.1161,0.6219,-0.2669,0.7270,-374,249,699,-1939,-303,479,55,73,43,289.0173,75.0633,-39.2796,1,1
0000990097,8,0.1185,0.6228,-0.2668,0.7258,-376,255,695,-1971,-263,507,63,81,43,288.8298,75.3305,-39.2777,1,1
0000990118,8,0.1216,0.6238,-0.2671,0.7243,-383,264,690,-1987,-203,467,107,97,44,288.5521,75.6329,-39.2762,1,1
0000990139,8,0.1256,0.6248,-0.2682,0.7224,-383,264,690,-1959,-395,495,138,114,36,288.0893,75.9655,-39.3195,1,1
0000990160,8,0.1293,0.6264,-0.2690,0.7201,-389,272,682,-1947,-347,511,89,138,37,287.4014,76.3388,-39.6423,1,1
0000990181,8,0.1329,0.6294,-0.2684,0.7171,-397,281,675,-1963,-247,503,41,167,49,286.3223,76.9001,-40.4848,1,1
0000990202,8,0.1357,0.6324,-0.2672,0.7143,-407,281,667,-1971,-239,503,21,192,55,285.2466,77.4259,-41.4400,1,1
0000990223,8,0.1383,0.6362,-0.2656,0.7111,-420,286,653,-1975,-159,503,12,223,53,283.7964,78.0155,-42.8252,1,1
0000990244,8,0.1417,0.6403,-0.2644,0.7071,-420,286,653,-1975,-279,459,59,262,47,281.7827,78.6653,-44.6678,1,1
0000990265,8,0.1459,0.6450,-0.2637,0.7023,-436,289,641,-1987,-327,427,70,306,49,279.0321,79.3714,-47.1471,1,1
0000990286,8,0.1510,0.6518,-0.2619,0.6956,-450,296,621,-1971,-203,391,22,338,56,274.4997,80.3256,-51.4249,1,1
0000990307,8,0.1543,0.6581,-0.2593,0.6898,-470,293,603,-1967,-47,403,-19,368,53,269.7180,81.1053,-56.1651,1,1
0000990328,8,0.1582,0.6650,-0.2572,0.6831,-491,297,579,-2035,-175,227,62,407,40,263.2337,81.8385,-62.5093,1,1
0000990349,8,0.1634,0.6719,-0.2565,0.6754,-491,297,579,-2015,-395,195,88,432,31,254.8580,82.4507,-70.5225,1,1
0000990370,8,0.1676,0.6796,-0.2544,0.6673,-512,296,553,-1919,-251,-19,-14,469,30,244.5767,82.8913,-80.6314,1,1
0000990391,8,0.1724,0.6897,-0.2507,0.6570,-533,297,526,-1971,-187,247,8,464,61,229.8858,83.1194,-95.2262,1,1
0000990412,8,0.1767,0.6971,-0.2468,0.6495,-552,294,499,-2027,-59,131,-38,427,101,218.3705,83.1306,-106.7094,1,1
0000990433,8,0.1813,0.7031,-0.2431,0.6432,-567,299,476,-2059,-151,-19,51,346,117,208.3955,83.0265,-116.6102,1,1
0000990454,8,0.1879,0.7065,-0.2427,0.6377,-567,299,476,-2107,-459,99,205,258,96,200.7837,82.8645,-123.6944,1,1
0000990475,8,0.1948,0.7080,-0.2455,0.6328,-574,312,457,-2339,-483,271,312,171,25,195.8163,82.6438,-127.8238,1,1
0000990496,8,0.2039,0.7081,-0.2533,0.6268,-581,322,442,-2007,-539,83,431,142,-20,192.3769,82.2854,-129.8088,1,1
0000990517,8,0.2117,0.7076,-0.2624,0.6210,-585,328,423,-1903,-399,-23,483,153,-76,190.7591,81.8658,-129.9657,1,1
0000990538,8,0.2186,0.7075,-0.2721,0.6145,-585,328,423,-2163,-311,219,455,160,-118,189.5703,81.2995,-129.7042,1,1
0000990559,8,0.2236,0.7070,-0.2810,0.6093,-593,329,407,-2027,-395,907,342,56,-119,189.4589,80.8115,-128.5970,1,1
0000990580,8,0.2244,0.7046,-0.2879,0.6085,-595,323,405,-2107,251,771,175,-219,-116,192.1133,80.6617,-125.2626,1,1
0000990601,8,0.2233,0.6969,-0.2970,0.6134,-583,311,417,-1847,703,563,259,-392,-76,199.7798,80.9698,-116.9065,1,1
0000990622,8,0.2247,0.6862,-0.3074,0.6198,-565,301,435,-1779,687,591,424,-529,-37,209.1022,81.3964,-106.5597,1,1
0000990643,8,0.2268,0.6723,-0.3188,0.6284,-565,301,435,-1831,759,459,415,-663,39,221.7087,81.7311,-92.7748,1,1
0000990664,8,0.2289,0.6558,-0.3283,0.6402,-535,297,457,-1839,911,423,376,-780,138,237.7900,81.8419,-75.6834,1,1
0000990685,8,0.2320,0.6367,-0.3372,0.6535,-498,297,480,-1931,867,511,481,-851,234,255.2664,81.3609,-57.1282,1,1
0000990706,8,0.2396,0.6095,-0.3490,0.6703,-461,302,497,-1975,443,663,569,-860,289,274.3354,79.8434,-36.2715,1,1
0000990727,8,0.2465,0.5870,-0.3574,0.6833,-428,304,506,-1907,287,763,513,-834,331,285.5621,78.0748,-23.5849,1,1
0000990748,8,0.2528,0.5654,-0.3633,0.6960,-428,304,506,-1947,183,759,441,-776,371,293.7244,76.1090,-14.2118,1,1
0000990769,8,0.2594,0.5449,-0.3672,0.7078,-408,299,507,-1947,83,759,409,-704,403,299.9479,74.1215,-6.9066,1,1
0000990790,8,0.2662,0.5258,-0.3696,0.7184,-401,293,505,-1947,-99,823,371,-601,393,304.6844,72.2134,-1.1767,1,1
0000990811,8,0.2741,0.5046,-0.3716,0.7295,-410,282,504,-1931,-223,771,320,-518,359,308.9612,70.0340,4.2012,1,1
0000990832,8,0.2789,0.4904,-0.3720,0.7371,-432,264,506,-1847,-411,787,218,-441,316,311.3806,68.4999,7.2534,1,1
0000990853,8,0.2817,0.4790,-0.3711,0.7440,-432,264,506,-1859,-511,703,106,-364,279,313.2642,67.1854,9.4510,1,1
0000990874,8,0.2824,0.4703,-0.3689,0.7504,-464,245,510,-1879,-575,723,-8,-304,249,314.7582,66.0700,10.9194,1,0
0000990895,8,0.2807,0.4641,-0.3651,0.7566,-505,223,521,-1915,-627,711,-186,-227,205,316.0126,65.1350,11.7745,1,0
0000990916,8,0.2743,0.4609,-0.3582,0.7642,-544,194,533,-1939,-587,623,-323,-163,175,317.2257,64.2859,11.8352,1,0
0000990937,8,0.2666,0.4613,-0.3512,0.7699,-588,161,548,-1923,-459,627,-422,-105,137,318.0111,63.8497,11.3058,1,1
0000990958,8,0.2581,0.4631,-0.3442,0.7749,-588,161,548,-1971,-343,599,-434,-68,83,318.6157,63.5495,10.5026,1,1
0000990979,8,0.2501,0.4651,-0.3389,0.7786,-626,124,562,-2095,-315,527,-346,-55,23,318.8336,63.3565,9.5162,1,1
0000991000,8,0.2437,0.4668,-0.3361,0.7809,-663,97,579,-2139,-275,491,-201,-38,-52,318.6894,63.2244,8.5363,1,1
0000991021,8,0.2385,0.4681,-0.3363,0.7816,-696,75,595,-2115,-303,459,-78,-37,-104,317.9632,63.1390,7.3632,1,1
0000991042,8,0.2358,0.4686,-0.3387,0.7811,-720,55,614,-2103,-279,327,-18,-27,-135,317.0856,63.1019,6.4661,1,1
0000991063,8,0.2332,0.4697,-0.3416,0.7800,-720,55,614,-2123,-83,35,-42,5,-165,316.0467,63.1229,5.4438,1,1
0000991084,8,0.2304,0.4722,-0.3444,0.7780,-744,34,627,-2151,-83,-79,-44,61,-186,314.8530,63.3160,4.2359,1,1
0000991105,8,0.2275,0.4761,-0.3468,0.7755,-763,11,630,-2135,-31,-187,-116,137,-177,313.6262,63.6535,2.9184,1,1
0000991126,8,0.2232,0.4835,-0.3475,0.7718,-787,-12,626,-2131,-67,-155,-157,198,-158,312.2198,64.3469,1.1202,1,1
0000991147,8,0.2196,0.4912,-0.3467,0.7683,-808,-42,609,-2055,-115,-63,-209,259,-151,311.1374,65.1029,-0.4393,1,1
0000991168,8,0.2154,0.5001,-0.3453,0.7644,-808,-42,609,-1955,-55,155,-237,295,-164,309.9193,65.9604,-2.2590,1,1
0000991189,8,0.2115,0.5093,-0.3440,0.7599,-831,-71,586,-1939,259,523,-198,303,-170,308.4955,66.8740,-4.2309,1,1
0000991210,8,0.2095,0.5169,-0.3448,0.7550,-850,-93,563,-1659,-59,1259,34,217,-194,306.8549,67.6686,-6.0497,1,1
0000991231,8,0.2092,0.5205,-0.3481,0.7511,-860,-112,555,-2295,147,1343,10,77,-159,305.2751,68.0532,-7.3900,1,1
0000991252,8,0.2021,0.5235,-0.3467,0.7516,-867,-135,551,-3887,667,-495,-343,17,-61,304.3410,67.9779,-9.0898,1,1
0000991273,8,0.1953,0.5298,-0.3422,0.7510,-867,-135,551,-899,-647,983,-347,167,-64,303.6569,68.3602,-10.8135,1,1
0000991294,8,0.1892,0.5351,-0.3385,0.7506,-871,-160,538,-1431,-1311,627,-301,85,-50,302.9802,68.6362,-12.3895,1,1
0000991315,8,0.1810,0.5409,-0.3334,0.7506,-876,-184,525,-2103,-275,719,-494,112,-55,302.2705,68.8734,-14.2916,1,1
0000991336,8,0.1725,0.5475,-0.3272,0.7506,-883,-206,510,-2139,231,639,-370,125,-25,301.6512,69.1937,-16.2400,1,1
0000991357,8,0.1689,0.5530,-0.3243,0.7486,-888,-217,496,-1895,-23,907,-93,145,-59,300.7860,69.6486,-17.7037,1,1
0000991378,8,0.1670,0.5572,-0.3234,0.7463,-888,-217,496,-1851,-459,907,-143,152,-73,299.7785,70.0103,-18.9876,1,1
0000991399,8,0.1626,0.5628,-0.3205,0.7444,-897,-234,483,-1899,-207,675,-286,171,-56,298.7190,70.4109,-20.7171,1,1
0000991420,8,0.1586,0.5686,-0.3173,0.7422,-902,-251,466,-1975,215,435,-77,189,-82,297.6136,70.8469,-22.4755,1,1
0000991462,8,0.1676,0.5750,-0.3288,0.7302,-919,-257,447,-1819,-339,699,371,226,-173,293.0875,71.7971,-25.2616,1,1
0000991483,8,0.1722,0.5775,-0.3353,0.7242,-919,-257,447,-1883,-331,571,205,201,-163,290.6635,72.1568,-26.7349,1,1
0000991504,8,0.1742,0.5807,-0.3394,0.7192,-926,-266,437,-1923,-207,603,109,192,-143,288.4206,72.4643,-28.4641,1,1
0000991525,8,0.1765,0.5838,-0.3433,0.7143,-933,-272,426,-1931,-459,639,191,199,-133,286.2227,72.7797,-30.1323,1,1
0000991546,8,0.1800,0.5864,-0.3478,0.7090,-940,-276,417,-1879,-439,603,186,202,-124,283.9927,73.1039,-31.6726,1,1
0000991567,8,0.1835,0.5896,-0.3526,0.7031,-948,-281,409,-1943,-367,559,139,171,-115,281.3430,73.4454,-33.6124,1,1
0000991588,8,0.1857,0.5923,-0.3556,0.6987,-948,-281,409,-1935,-323,543,115,182,-105,279.2895,73.7010,-35.2130,1,1
0000991609,8,0.1883,0.5951,-0.3587,0.6941,-953,-289,397,-1923,-127,435,147,189,-104,277.1639,73.9791,-36.8441,1,1
0000991630,8,0.1920,0.5973,-0.3630,0.6890,-962,-292,392,-1943,91,207,272,189,-123,274.8767,74.2294,-38.4483,1,1
0000991651,8,0.1978,0.5981,-0.3695,0.6831,-967,-290,388,-1959,-571,235,375,177,-131,272.4606,74.4296,-39.7775,1,1
0000991672,8,0.2044,0.5986,-0.3775,0.6763,-970,-294,383,-1835,-655,123,202,142,-105,269.6472,74.5866,-41.2876,1,1
0000991693,8,0.2057,0.6002,-0.3795,0.6734,-970,-294,383,-1891,-719,-63,40,86,-63,268.1388,74.6751,-42.5095,1,1
0000991714,8,0.2060,0.6009,-0.3809,0.6718,-974,-300,380,-1875,-667,7,37,13,-51,267.2938,74.6561,-43.1956,1,1
0000991735,8,0.2047,0.6009,-0.3814,0.6720,-970,-301,381,-1895,-475,51,-79,-62,-18,267.2100,74.5194,-43.3404,1,1
0000991756,8,0.2019,0.6006,-0.3804,0.6737,-968,-307,386,-1903,-319,155,-130,-114,0,267.7180,74.3209,-43.1699,1,1
0000991777,8,0.1970,0.5993,-0.3782,0.6775,-968,-307,386,-1971,-299,115,-153,-161,13,269.1010,73.9579,-42.3902,1,1
0000991798,8,0.1922,0.5977,-0.3760,0.6815,-959,-311,393,-1887,-331,339,-210,-191,13,270.5406,73.5766,-41.5598,1,1
0000991819,8,0.1856,0.5964,-0.3726,0.6864,-951,-321,401,-1955,-503,475,-286,-224,25,272.1827,73.1287,-40.7867,1,1
0000991840,8,0.1776,0.5954,-0.3677,0.6920,-942,-330,407,-1847,-543,559,-378,-231,31,273.9783,72.6554,-40.1103,1,1
0000991861,8,0.1686,0.5948,-0.3622,0.6976,-931,-342,413,-1975,-367,543,-333,-216,21,275.6468,72.1676,-39.7012,1,1
0000991882,8,0.1600,0.5933,-0.3572,0.7035,-931,-342,413,-1955,-683,731,-245,-190,30,277.4681,71.6232,-39.0427,1,1
0000991903,8,0.1539,0.5925,-0.3528,0.7077,-924,-351,417,-1875,-495,783,-296,-157,46,278.7979,71.2955,-38.6207,1,1
0000991924,8,0.1482,0.5923,-0.3480,0.7114,-917,-356,419,-1919,-303,663,-244,-119,49,279.9668,71.0616,-38.3585,1,1
0000991945,8,0.1449,0.5917,-0.3450,0.7140,-914,-358,421,-1947,-483,715,-119,-87,43,280.8707,70.9082,-37.9918,1,1
0000991966,8,0.1425,0.5913,-0.3424,0.7161,-910,-359,420,-1903,-395,763,-171,-60,51,281.6338,70.8148,-37.6646,1,1
0000991987,8,0.1386,0.5921,-0.3377,0.7185,-910,-359,420,-1939,-159,715,-192,-27,51,282.4455,70.7986,-37.6126,1,1
0000992008,8,0.1362,0.5931,-0.3343,0.7196,-910,-360,416,-1959,-215,651,-132,1,41,282.8312,70.8636,-37.7304,1,1
0000992029,8,0.1349,0.5942,-0.3320,0.7201,-912,-364,413,-1899,-331,611,-91,24,31,283.0049,70.9681,-37.8802,1,1
0000992050,8,0.1340,0.5955,-0.3300,0.7201,-914,-362,407,-1887,-347,547,-80,36,24,283.0124,71.0973,-38.1311,1,1
0000992071,8,0.1334,0.5967,-0.3283,0.7199,-917,-363,405,-1935,-503,495,-62,37,28,282.9726,71.2353,-38.3762,1,1
0000992092,8,0.1325,0.5984,-0.3257,0.7199,-917,-363,405,-1927,-335,479,-107,36,36,282.9947,71.4209,-38.6770,1,1
0000992113,8,0.1314,0.5998,-0.3232,0.7200,-918,-366,397,-1967,-375,475,-89,33,41,283.0763,71.5809,-38.9097,1,1
0000992134,8,0.1307,0.6010,-0.3209,0.7202,-922,-367,393,-1895,-343,443,-91,29,43,283.2010,71.7383,-39.0580,1,1
0000992155,8,0.1298,0.6021,-0.3185,0.7205,-924,-364,390,-1935,-367,383,-87,17,42,283.3899,71.8742,-39.1600,1,1
0000992176,8,0.1292,0.6028,-0.3165,0.7209,-925,-363,386,-1879,-335,435,-52,4,36,283.6231,71.9797,-39.1631,1,1
0000992197,8,0.1293,0.6029,-0.3152,0.7214,-925,-363,386,-1907,-371,407,7,-8,31,283.9623,72.0583,-38.9294,1,1
0000992218,8,0.1303,0.6021,-0.3152,0.7219,-928,-360,389,-1903,-479,367,47,-23,35,284.3268,72.0778,-38.4792,1,1
0000992239,8,0.1319,0.6008,-0.3155,0.7226,-925,-355,393,-1879,-627,335,71,-43,49,284.8733,72.0789,-37.7650,1,1
0000992260,8,0.1338,0.5989,-0.3157,0.7237,-925,-343,399,-1907,-515,411,69,-65,68,285.7047,72.0501,-36.7530,1,1
0000992281,8,0.1358,0.5966,-0.3156,0.7253,-924,-332,407,-1951,-315,479,82,-75,86,286.7496,72.0123,-35.5403,1,1
0000992302,8,0.1397,0.5930,-0.3159,0.7273,-924,-332,407,-1959,-383,531,128,-80,99,288.2668,71.9742,-33.6522,1,1
0000992323,8,0.1432,0.5901,-0.3161,0.7289,-922,-318,414,-1943,-383,639,132,-68,112,289.5544,71.9581,-32.0429,1,1
0000992344,8,0.1481,0.5871,-0.3167,0.7301,-922,-299,425,-1907,-367,503,202,-47,129,290.8748,72.0078,-30.2477,1,1
0000992365,8,0.1543,0.5835,-0.3178,0.7312,-919,-273,432,-1871,-315,383,240,-63,142,292.3339,72.0654,-28.1608,1,1
0000992386,8,0.1608,0.5790,-0.3192,0.7328,-919,-247,448,-1935,-755,323,260,-103,160,294.0582,72.0398,-25.7477,1,1
0000992407,8,0.1684,0.5722,-0.3196,0.7362,-919,-247,448,-1859,-775,151,178,-170,215,296.8823,71.8490,-22.2057,1,1
0000992428,8,0.1726,0.5656,-0.3182,0.7410,-912,-219,463,-1911,-139,-143,129,-263,230,299.7289,71.4475,-19.0972,1,1
0000992449,8,0.1766,0.5568,-0.3178,0.7468,-899,-189,488,-2023,-335,255,188,-360,214,302.6158,70.7257,-15.8442,1,1
0000992470,8,0.1787,0.5465,-0.3171,0.7542,-878,-161,515,-2099,-275,507,49,-441,229,305.4569,69.6723,-12.8098,1,1
0000992491,8,0.1772,0.5362,-0.3137,0.7633,-846,-140,547,-2923,-135,707,-77,-493,251,308.3029,68.4041,-10.3062,1,1
0000992512,8,0.1763,0.5214,-0.3106,0.7750,-846,-140,547,-3527,11,327,100,-541,227,311.5030,66.5820,-7.3204,1,1
0000992533,8,0.1804,0.5067,-0.3123,0.7830,-812,-108,585,-3311,-463,55,366,-550,225,313.5654,64.9946,-4.6134,1,1
0000992554,8,0.1869,0.4901,-0.3151,0.7910,-759,-58,627,-3143,-439,531,338,-619,262,315.5284,63.2590,-1.6759,1,1
0000992575,8,0.1888,0.4734,-0.3151,0.8006,-693,-14,669,-2703,-171,475,113,-656,262,317.3136,61.2868,0.4701,1,1
0000992596,8,0.1876,0.4572,-0.3140,0.8106,-611,16,718,-1243,-335,4211,-20,-762,234,318.7404,59.2210,1.9122,1,1
0000992617,8,0.1792,0.4313,-0.3125,0.8272,-611,16,718,-2451,-159,2323,-72,-1064,203,320.0413,55.6411,2.7206,1,1
0000992638,8,0.1704,0.4058,-0.3138,0.8413,-509,43,792,-1747,151,2971,-86,-1175,133,320.5514,52.1685,2.9951,1,1
0000992659,8,0.1590,0.3770,-0.3157,0.8561,-390,61,877,-1495,799,2427,-4,-1325,118,320.8387,48.2320,2.9508,1,1
0000992680,8,0.1524,0.3438,-0.3213,0.8691,-256,99,958,-1227,347,2327,254,-1382,53,320.8413,44.0642,3.5042,1,1
0000992701,8,0.1473,0.3084,-0.3284,0.8806,-115,138,1028,-399,311,1783,262,-1391,47,320.6356,39.7824,4.2433,1,1
0000992722,8,0.1381,0.2656,-0.3351,0.8934,-115,138,1028,-83,299,1427,93,-1329,55,320.3649,34.5458,4.7907,1,1
0000992743,8,0.1265,0.2356,-0.3380,0.9023,22,155,1083,59,555,827,-90,-1203,55,320.1906,30.7092,4.6060,1,1
0000992764,8,0.1143,0.2095,-0.3397,0.9097,143,154,1120,87,659,619,-115,-1033,52,320.0791,27.3184,4.2366,1,1
0000992785,8,0.1044,0.1878,-0.3405,0.9153,237,155,1143,159,743,291,-44,-842,63,320.0547,24.5188,3.9880,1,1
0000992806,8,0.0993,0.1694,-0.3409,0.9194,304,164,1154,199,723,155,79,-598,72,320.1257,22.2828,4.1551,1,1
0000992827,8,0.0980,0.1522,-0.3412,0.9224,304,164,1154,291,739,155,144,-396,59,320.2450,20.3461,4.7039,1,1
0000992848,8,0.0997,0.1438,-0.3413,0.9235,339,179,1161,203,811,175,172,-203,47,320.3380,19.4914,5.2385,1,1
0000992869,8,0.1045,0.1395,-0.3413,0.9236,344,194,1158,43,851,231,210,-7,33,320.4439,19.2085,5.9472,1,1
0000992890,8,0.1116,0.1401,-0.3412,0.9228,316,214,1154,-63,835,503,256,194,26,320.5769,19.5597,6.7239,1,1
0000992911,8,0.1221,0.1453,-0.3408,0.9208,256,237,1143,-27,935,631,296,413,8,320.7765,20.5387,7.7164,1,1
0000992932,8,0.1402,0.1581,-0.3412,0.9159,256,237,1143,-247,863,555,437,655,-64,320.9963,22.6646,9.2805,1,1
0000992953,8,0.1583,0.1735,-0.3425,0.9097,167,269,1123,-623,411,1127,449,882,-107,321.1404,25.1001,10.7691,1,1
0000992974,8,0.1769,0.1954,-0.3423,0.9019,43,288,1091,-1011,967,1043,399,1121,-106,321.4988,28.2693,12.1421,1,1
0000992995,8,0.1992,0.2205,-0.3424,0.8913,-98,317,1038,-1335,567,1519,550,1250,-163,321.9780,31.9720,13.9175,1,1
0000993016,8,0.2210,0.2470,-0.3424,0.8791,-242,321,979,-1703,187,1955,296,1263,-170,322.5490,35.8454,15.7142,1,1
0000993037,8,0.2345,0.2843,-0.3371,0.8663,-242,321,979,-1907,-371,2647,-306,1243,-102,323.5858,40.5950,16.4217,1,1
0000993058,8,0.2265,0.3203,-0.3229,0.8613,-374,260,921,-2119,323,2067,-1103,1261,57,324.9655,44.2710,14.8370,1,1
0000993079,8,0.2107,0.3598,-0.3010,0.8576,-501,161,849,-2611,587,1855,-1178,1361,170,326.9244,48.0787,12.5228,1,0
0000993100,8,0.2032,0.3990,-0.2806,0.8490,-631,108,753,-3135,667,1571,-693,1508,121,329.0569,52.3285,11.4355,1,1
0000993121,8,0.2067,0.4367,-0.2672,0.8338,-631,108,753,-3287,151,1311,-32,1573,-46,330.8821,56.9999,11.7912,1,1
0000993142,8,0.2216,0.4784,-0.2613,0.8086,-745,93,639,-3287,-503,1131,204,1467,-179,332.5773,62.8040,13.7044,1,1
0000993163,8,0.2302,0.5069,-0.2601,0.7889,-834,79,532,-2611,-355,683,81,1197,-263,333.2230,66.8695,14.6771,1,1
0000993184,8,0.2362,0.5282,-0.2610,0.7727,-885,59,452,-2063,-323,363,192,867,-230,333.3003,69.9881,15.1344,1,1
0000993205,8,0.2439,0.5416,-0.2650,0.7596,-915,51,408,-1059,-1339,1355,302,563,-209,333.0938,72.1771,15.8174,1,1
0000993226,8,0.2443,0.5481,-0.2692,0.7533,-915,51,408,-1363,171,899,-217,58,-199,331.5447,73.1924,14.6118,1,1
0000993247,8,0.2366,0.5510,-0.2689,0.7538,-922,23,400,-2683,699,-275,-230,-43,-157,329.7537,73.2998,12.1122,1,1
0000993268,8,0.2352,0.5522,-0.2756,0.7509,-926,5,399,-2111,367,483,170,51,-237,327.1132,73.5198,9.9232,1,1
0000993289,8,0.2318,0.5535,-0.2801,0.7493,-927,-18,399,-2187,123,503,-60,-60,-211,324.6951,73.5966,7.5919,1,1
0000993310,8,0.2280,0.5531,-0.2838,0.7494,-923,-34,402,-1939,-691,531,-40,-75,-162,322.6885,73.4139,5.5908,1,1
0000993331,8,0.2206,0.5543,-0.2841,0.7506,-923,-34,402,-1627,-519,727,-360,-75,-156,320.9215,73.2261,3.2135,1,1
0000993352,8,0.2108,0.5566,-0.2824,0.7523,-921,-63,405,-1779,-59,815,-327,-43,-159,319.2435,73.0569,0.5402,1,1
0000993373,8,0.2001,0.5601,-0.2815,0.7530,-918,-91,399,-2027,399,659,-273,1,-180,316.9797,72.9689,-2.7375,1,1
0000993394,8,0.1925,0.5634,-0.2813,0.7526,-918,-119,395,-2155,35,639,-246,31,-184,315.0676,73.0008,-5.3337,1,1
0000993415,8,0.1847,0.5671,-0.2808,0.7519,-919,-148,387,-1935,-395,795,-281,49,-185,313.1078,73.0623,-8.0180,1,1
0000993436,8,0.1765,0.5716,-0.2798,0.7509,-919,-148,387,-1927,-239,791,-259,93,-186,311.0312,73.1709,-10.8947,1,1
0000993457,8,0.1704,0.5762,-0.2800,0.7487,-921,-176,373,-2015,555,571,-141,134,-197,308.7927,73.3861,-13.6612,1,1
0000993478,8,0.1680,0.5812,-0.2846,0.7436,-926,-197,363,-2035,123,663,97,169,-221,305.4671,73.7490,-16.8116,1,1
0000993499,8,0.1681,0.5849,-0.2900,0.7386,-929,-216,351,-1879,-347,527,93,183,-226,302.4781,74.0539,-19.3341,1,1
0000993520,8,0.1677,0.5888,-0.2946,0.7337,-935,-232,343,-1919,-459,331,100,182,-203,299.5173,74.3423,-21.9441,1,1
0000993541,8,0.1700,0.5917,-0.3009,0.7283,-935,-232,343,-1899,-371,459,301,175,-199,296.5980,74.6221,-24.1407,1,1
0000993562,8,0.1747,0.5931,-0.3093,0.7225,-939,-242,334,-2027,-199,239,366,157,-198,293.6819,74.8242,-25.9262,1,1
0000993583,8,0.1815,0.5936,-0.3205,0.7156,-942,-249,333,-1919,-511,419,361,123,-175,290.3057,74.9742,-27.7380,1,1
0000993604,8,0.1846,0.5941,-0.3267,0.7115,-944,-254,331,-1883,-499,499,161,89,-132,288.1604,75.0237,-29.0644,1,1
0000993625,8,0.1853,0.5955,-0.3300,0.7086,-945,-259,326,-1979,-135,527,93,91,-107,286.4659,75.0816,-30.4141,1,1
0000993646,8,0.1879,0.5966,-0.3344,0.7050,-945,-259,326,-1955,-71,523,266,125,-121,284.6331,75.1946,-31.6340,1,1
0000993667,8,0.1925,0.5970,-0.3406,0.7004,-948,-266,324,-1935,-415,547,295,133,-119,282.5814,75.3301,-32.7404,1,1
0000993688,8,0.1971,0.5985,-0.3465,0.6949,-950,-268,316,-1947,-211,499,162,145,-99,280.0280,75.5512,-34.3808,1,1
0000993709,8,0.1999,0.6002,-0.3501,0.6908,-955,-270,312,-1959,-267,323,181,148,-93,278.0355,75.7545,-35.8143,1,1
0000993730,8,0.2036,0.6013,-0.3544,0.6866,-959,-274,306,-1891,-427,355,217,132,-93,276.0493,75.9259,-37.0938,1,1
0000993751,8,0.2068,0.6022,-0.3583,0.6828,-959,-274,306,-1935,-351,343,143,112,-70,274.2814,76.0594,-38.2405,1,1
0000993772,8,0.2092,0.6033,-0.3609,0.6797,-963,-278,302,-1939,-311,295,121,107,-53,272.7892,76.2046,-39.2933,1,1
0000993793,8,0.2122,0.6043,-0.3636,0.6765,-967,-276,298,-1931,-379,207,114,84,-36,271.2865,76.3766,-40.2945,1,1
0000993814,8,0.2141,0.6048,-0.3651,0.6746,-969,-276,294,-1911,-559,275,65,61,-16,270.4326,76.4947,-40.8529,1,1
0000993835,8,0.2146,0.6056,-0.3650,0.6738,-972,-278,293,-1927,-391,259,-28,32,5,270.0272,76.5887,-41.2322,1,1
0000993856,8,0.2143,0.6062,-0.3640,0.6738,-972,-278,293,-1951,-267,299,-26,10,19,270.0081,76.6616,-41.3622,1,0
0000993877,8,0.2146,0.6061,-0.3639,0.6739,-972,-278,292,-1971,-339,315,46,-7,23,270.1176,76.6892,-41.2408,1,0
0000993898,8,0.2161,0.6050,-0.3644,0.6741,-973,-270,296,-1967,-319,351,36,-18,27,270.5690,76.7112,-40.6132,1,0
0000993919,8,0.2164,0.6045,-0.3642,0.6746,-975,-268,298,-1943,-247,379,-1,-16,37,270.9776,76.7147,-40.1959,1,0
0000993940,8,0.2169,0.6038,-0.3636,0.6754,-975,-263,300,-2003,-151,275,10,-24,49,271.6022,76.7506,-39.5827,1,0
0000993961,8,0.2181,0.6027,-0.3634,0.6761,-975,-263,300,-2003,-387,155,54,-36,64,272.3537,76.7775,-38.7430,1,0
0000993982,8,0.2195,0.6011,-0.3632,0.6771,-977,-255,306,-1847,-647,359,0,-43,83,273.3552,76.7953,-37.6336,1,0
0000994003,8,0.2192,0.5999,-0.3601,0.6799,-975,-246,308,-1919,-651,235,-134,-71,113,275.2329,76.8421,-36.0599,1,0
0000994024,8,0.2164,0.5999,-0.3550,0.6836,-977,-240,310,-1943,-631,299,-251,-82,139,277.1416,76.8523,-34.8599,1,0
0000994045,8,0.2130,0.6002,-0.3482,0.6878,-974,-235,310,-1951,-451,403,-285,-71,156,279.3799,76.9149,-33.5366,1,0
0000994066,8,0.2098,0.6006,-0.3411,0.6921,-974,-235,310,-1983,-415,347,-283,-71,185,281.7782,77.0025,-32.0577,1,0
0000994087,8,0.2059,0.6011,-0.3324,0.6970,-973,-223,307,-1935,-447,435,-425,-76,231,284.6455,77.1105,-30.3140,1,0
0000994108,8,0.1989,0.6028,-0.3175,0.7045,-974,-214,304,-1967,-355,547,-522,-79,268,289.0792,77.3136,-27.8129,1,0
0000994129,8,0.1925,0.6044,-0.3039,0.7109,-974,-202,299,-1931,-259,527,-542,-65,294,293.0205,77.4868,-25.6233,1,0
0000994150,8,0.1869,0.6059,-0.2900,0.7169,-977,-188,296,-1943,-203,491,-514,-56,309,297.3164,77.7034,-23.0331,1,0
0000994171,8,0.1822,0.6070,-0.2766,0.7224,-977,-188,296,-1955,-75,383,-449,-47,308,301.6459,77.8945,-20.2727,1,0
0000994192,8,0.1795,0.6074,-0.2650,0.7271,-977,-170,292,-1967,7,351,-284,-42,290,306.0258,78.0618,-17.1330,1,0
0000994213,8,0.1799,0.6064,-0.2545,0.7315,-980,-148,294,-1979,-63,255,-113,-51,276,311.1986,78.1766,-12.8321,1,0
0000994234,8,0.1826,0.6043,-0.2488,0.7345,-977,-122,300,-2011,-67,123,-24,-79,261,315.1743,78.1403,-9.1033,1,0
0000994255,8,0.1858,0.6010,-0.2444,0.7379,-972,-99,310,-2099,59,127,1,-125,243,319.0214,77.9113,-5.3597,1,0
0000994276,8,0.1892,0.5969,-0.2406,0.7416,-972,-99,310,-2167,-143,371,57,-158,265,322.6306,77.5317,-1.7611,1,0
0000994297,8,0.1949,0.5915,-0.2370,0.7456,-967,-63,326,-2283,-191,511,85,-154,322,326.8320,77.0262,2.6357,1,0
0000994318,8,0.2004,0.5860,-0.2315,0.7503,-958,-34,336,-2399,427,535,0,-116,255,331.3690,76.4158,7.1863,1,0
0000994339,8,0.2041,0.5827,-0.2289,0.7526,-950,-10,347,-2347,163,443,115,-86,170,333.7196,76.0540,9.6507,1,0
0000994360,8,0.2086,0.5788,-0.2296,0.7542,-950,-10,347,-2251,-91,203,184,-135,97,334.9625,75.6513,11.3583,1,0
0000994381,8,0.2120,0.5735,-0.2326,0.7564,-935,6,363,-2091,-327,475,188,-243,37,335.0641,75.0426,12.0359,1,0
0000994402,8,0.2132,0.5666,-0.2357,0.7602,-913,18,389,-1923,-395,1211,78,-314,29,334.6852,74.1588,12.0618,1,0
0000994423,8,0.2097,0.5542,-0.2385,0.7694,-885,26,437,-2183,-1003,1739,-71,-637,19,333.6706,72.3352,11.0780,1,0
0000994444,8,0.1978,0.5392,-0.2390,0.7830,-836,11,515,-1903,-839,1759,-441,-933,-19,332.1270,69.8608,8.6970,1,0
0000994465,8,0.1804,0.5198,-0.2378,0.8004,-836,11,515,-2311,487,1643,-439,-1133,-12,330.8710,66.6320,6.0202,1,0
0000994486,8,0.1685,0.4950,-0.2420,0.8173,-771,-4,613,-2147,823,1663,25,-1236,-65,329.7955,62.9630,4.5328,1,0
0000994507,8,0.1665,0.4651,-0.2547,0.8313,-688,8,721,-2031,507,1639,543,-1292,-139,328.4541,59.1070,4.4497,1,0
0000994528,8,0.1719,0.4229,-0.2761,0.8458,-591,51,827,-1783,-79,1807,668,-1340,-111,326.7041,54.1305,5.6072,1,0
0000994549,8,0.1709,0.3886,-0.2886,0.8582,-480,78,925,-1563,203,1635,289,-1385,-26,325.6941,49.9601,6.1564,1,1
0000994570,8,0.1618,0.3559,-0.2956,0.8716,-480,78,925,-1475,527,1415,-21,-1391,3,325.0177,45.7336,5.8906,1,1
0000994591,8,0.1483,0.3247,-0.3005,0.8845,-354,77,1010,-1203,911,1079,-147,-1351,-24,324.4191,41.5674,5.1462,1,1
0000994612,8,0.1338,0.2956,-0.3055,0.8952,-231,68,1080,-1047,1119,803,-110,-1198,-92,323.7683,37.6645,4.2692,1,1
0000994633,8,0.1201,0.2634,-0.3129,0.9046,-119,62,1128,-895,1099,639,3,-1011,-115,322.9242,33.4838,3.6061,1,1
0000994654,8,0.1139,0.2418,-0.3188,0.9094,-33,69,1160,-779,1019,459,93,-805,-103,322.3413,30.8211,3.5365,1,1
0000994675,8,0.1104,0.2249,-0.3236,0.9124,-33,69,1160,-591,991,299,118,-583,-79,321.8837,28.8040,3.6580,1,1
0000994696,8,0.1099,0.2132,-0.3274,0.9140,24,78,1177,-567,987,103,148,-357,-65,321.5544,27.4886,3.9615,1,1
0000994717,8,0.1121,0.2064,-0.3305,0.9141,48,97,1185,-507,819,143,192,-71,-48,321.2958,26.8395,4.4080,1,1
0000994738,8,0.1179,0.2065,-0.3325,0.9126,35,108,1181,-563,703,247,119,190,-26,321.1730,27.0897,5.0229,1,1
0000994759,8,0.1234,0.2148,-0.3322,0.9101,-14,110,1168,-647,735,275,52,469,-20,321.2314,28.2237,5.3301,1,1
0000994780,8,0.1301,0.2301,-0.3311,0.9058,-14,110,1168,-763,671,407,55,750,-44,321.3298,30.1933,5.5272,1,1
0000994801,8,0.1401,0.2518,-0.3301,0.8989,-107,107,1138,-871,615,527,101,1019,-93,321.4109,33.0360,5.8638,1,1
0000994822,8,0.1531,0.2787,-0.3300,0.8888,-231,110,1089,-1247,511,747,227,1306,-187,321.3586,36.6137,6.3168,1,1
0000994843,8,0.1736,0.3189,-0.3305,0.8712,-378,109,1013,-1591,235,1055,190,1515,-213,321.1848,42.0923,7.1016,1,1
0000994864,8,0.1880,0.3559,-0.3285,0.8544,-535,93,911,-1911,371,1515,59,1642,-212,321.1482,47.0300,7.3674,1,1
0000994885,8,0.2024,0.3946,-0.3250,0.8353,-535,93,911,-2783,-71,2199,93,1731,-204,321.2403,52.2627,7.6651,1,1
0000994906,8,0.2171,0.4338,-0.3209,0.8134,-686,70,784,-3023,-299,2631,54,1769,-223,321.3651,57.6828,8.0297,1,1
0000994927,8,0.2277,0.4725,-0.3144,0.7913,-815,43,648,-2739,-779,2427,-171,1643,-175,321.5788,62.9800,8.0133,1,1
0000994948,8,0.2335,0.5168,-0.3019,0.7663,-906,3,515,-2571,-603,2383,-416,1445,-160,322.0355,68.9153,7.3366,1,1
0000994969,8,0.2292,0.5484,-0.2899,0.7502,-969,-42,423,-1267,-799,3903,-607,1149,-211,321.4872,72.8625,5.0682,1,1
0000994990,8,0.2232,0.5660,-0.2837,0.7412,-969,-42,423,-2975,283,199,-269,361,-187,319.7387,74.9399,2.1277,1,1
0000995011,8,0.2292,0.5684,-0.2950,0.7331,-991,-71,408,-5635,903,-3183,1059,326,-413,316.2644,75.5907,0.1432,1,1
0000995032,8,0.2537,0.5693,-0.3250,0.7113,-1009,-65,383,-935,-771,331,1327,342,-515,309.0318,77.0947,-2.3371,1,1
0000995053,8,0.2709,0.5654,-0.3497,0.6962,-1011,-63,386,-1559,-1755,867,921,33,-331,302.7285,77.5955,-4.8851,1,1
0000995074,8,0.2719,0.5653,-0.3617,0.6897,-1008,-98,381,-1547,-731,-87,-496,7,-224,297.3972,77.5422,-9.0248,1,1
0000995095,8,0.2501,0.5747,-0.3473,0.6975,-1008,-98,381,-1691,287,215,-1187,-109,-20,296.4702,77.2780,-13.2229,1,1
0000995116,8,0.2316,0.5810,-0.3351,0.7046,-1004,-145,375,-2187,323,171,-679,-107,-79,296.2869,76.9123,-16.1405,1,1
0000995137,8,0.2205,0.5834,-0.3314,0.7080,-998,-172,376,-1995,-371,479,-336,-122,-137,295.1813,76.4532,-18.5390,1,1
0000995158,8,0.2111,0.5849,-0.3296,0.7104,-992,-199,377,-1959,-495,547,-409,-114,-132,293.9925,75.9757,-20.6945,1,1
0000995179,8,0.1959,0.5884,-0.3239,0.7145,-985,-233,375,-2047,-99,627,-534,-98,-117,292.8204,75.4097,-23.6784,1,1
0000995200,8,0.1846,0.5914,-0.3195,0.7170,-985,-233,375,-2051,151,407,-372,-75,-129,291.9080,75.0188,-25.9546,1,1
0000995221,8,0.1777,0.5925,-0.3191,0.7180,-978,-257,373,-1931,-183,363,-139,-67,-150,290.8157,74.6372,-27.6580,1,1
0000995242,8,0.1727,0.5928,-0.3206,0.7183,-975,-275,376,-1839,-407,459,-111,-71,-147,289.6818,74.2328,-29.0854,1,1
0000995263,8,0.1675,0.5931,-0.3217,0.7188,-968,-292,375,-1867,-287,555,-104,-70,-133,288.7455,73.8265,-30.3600,1,1
0000995284,8,0.1630,0.5928,-0.3243,0.7190,-964,-306,381,-1939,-347,571,14,-61,-133,287.6713,73.3481,-31.5716,1,0
0000995305,8,0.1616,0.5917,-0.3279,0.7185,-964,-306,381,-1943,-507,555,72,-55,-124,286.8278,72.9901,-32.1977,1,0
0000995326,8,0.1603,0.5906,-0.3312,0.7182,-958,-316,385,-1935,-543,575,39,-55,-92,286.1440,72.6561,-32.6859,1,0
0000995347,8,0.1587,0.5898,-0.3331,0.7184,-954,-320,390,-1979,-303,559,1,-54,-55,285.7908,72.3697,-33.0013,1,1
0000995368,8,0.1580,0.5888,-0.3347,0.7186,-952,-324,394,-2019,-203,623,81,-35,-46,285.6311,72.1592,-33.0694,1,1
0000995389,8,0.1597,0.5871,-0.3384,0.7179,-949,-321,398,-1939,-247,675,159,-14,-49,285.3147,71.9806,-32.8997,1,1
0000995410,8,0.1625,0.5856,-0.3423,0.7166,-949,-321,398,-1859,-311,723,194,11,-53,284.8746,71.8990,-32.7512,1,1
0000995431,8,0.1656,0.5845,-0.3464,0.7148,-949,-321,404,-1851,-311,643,203,37,-58,284.2648,71.8712,-32.7209,1,1
0000995452,8,0.1690,0.5838,-0.3504,0.7126,-950,-318,405,-1903,-447,595,177,59,-53,283.5295,71.9008,-32.8021,1,1
0000995473,8,0.1717,0.5839,-0.3535,0.7104,-953,-317,404,-1939,-315,547,120,70,-48,282.7645,71.9787,-33.0665,1,1
0000995494,8,0.1745,0.5844,-0.3565,0.7077,-954,-317,403,-1903,-351,551,122,77,-44,281.7857,72.1195,-33.5347,1,1
0000995515,8,0.1768,0.5851,-0.3587,0.7055,-954,-317,403,-1879,-379,491,111,81,-45,280.9644,72.2480,-33.9673,1,1
0000995536,8,0.1789,0.5857,-0.3609,0.7034,-957,-318,400,-1891,-475,495,101,77,-41,280.1588,72.3729,-34.4019,1,1
0000995557,8,0.1804,0.5866,-0.3623,0.7015,-963,-319,396,-1939,-399,491,47,75,-27,279.4208,72.5005,-34.8881,1,1
0000995578,8,0.1816,0.5878,-0.3631,0.6998,-963,-321,391,-1959,-295,523,43,81,-24,278.7456,72.6510,-35.3976,1,1
0000995599,8,0.1834,0.5894,-0.3640,0.6975,-963,-321,391,-1939,-415,487,53,91,-15,277.8786,72.8819,-36.0326,1,1
0000995620,8,0.1847,0.5907,-0.3640,0.6960,-968,-320,387,-1899,-531,411,0,80,7,277.3430,73.0881,-36.4626,1,1
0000995641,8,0.1849,0.5925,-0.3626,0.6952,-970,-320,379,-1951,-507,539,-65,77,29,277.0231,73.3135,-36.9086,1,1
0000995662,8,0.1850,0.5946,-0.3603,0.6945,-975,-319,370,-2035,-147,483,-40,107,35,276.7376,73.5931,-37.4051,1,1
0000995683,8,0.1867,0.5966,-0.3593,0.6929,-981,-313,363,-1987,-203,415,76,127,23,276.2212,73.9328,-37.8841,1,1
0000995704,8,0.1904,0.5985,-0.3593,0.6902,-981,-313,363,-1887,-443,479,45,129,32,275.4051,74.3787,-38.3882,1,1
0000995725,8,0.1923,0.6007,-0.3578,0.6886,-986,-310,354,-1963,-323,419,-23,133,49,274.8548,74.7752,-38.9335,1,1
0000995746,8,0.1942,0.6032,-0.3558,0.6869,-995,-304,346,-1959,-303,435,-3,145,54,274.2929,75.2105,-39.5214,1,1
0000995767,8,0.1970,0.6054,-0.3544,0.6849,-1002,-297,334,-1947,-411,351,34,151,60,273.6391,75.6753,-40.0881,1,1
0000995788,8,0.2000,0.6075,-0.3529,0.6829,-1009,-289,324,-1943,-403,339,29,148,71,273.0507,76.1542,-40.5590,1,1
0000995809,8,0.2039,0.6099,-0.3506,0.6808,-1009,-289,324,-1931,-323,251,22,133,88,272.5428,76.7705,-40.9652,1,1
0000995830,8,0.2069,0.6114,-0.3485,0.6796,-1015,-280,314,-1963,-383,255,17,113,100,272.4406,77.2399,-41.0011,1,1
0000995851,8,0.2097,0.6127,-0.3457,0.6791,-1022,-267,308,-1971,-523,295,-22,95,130,272.7451,77.7106,-40.7195,1,1
0000995872,8,0.2120,0.6140,-0.3416,0.6793,-1028,-254,298,-1951,-495,311,-80,87,177,273.5815,78.2224,-40.0683,1,1
0000995893,8,0.2144,0.6152,-0.3363,0.6800,-1034,-236,290,-1939,-395,235,-80,81,202,274.9701,78.7899,-38.9631,1,1
0000995914,8,0.2179,0.6162,-0.3296,0.6813,-1034,-236,290,-1923,-347,203,-66,70,216,277.3490,79.5113,-36.8981,1,1
0000995935,8,0.2204,0.6168,-0.3238,0.6828,-1040,-216,285,-1959,-199,159,-101,53,221,279.8113,80.0500,-34.7517,1,1
0000995956,8,0.2230,0.6170,-0.3180,0.6845,-1045,-194,278,-1963,-407,227,-70,37,232,282.8150,80.5488,-32.0452,1,1
0000995977,8,0.2254,0.6169,-0.3118,0.6866,-1049,-171,276,-1943,-219,115,-126,18,245,286.5157,80.9933,-28.6900,1,1
0000995998,8,0.2267,0.6166,-0.3048,0.6896,-1051,-150,275,-1959,-223,39,-135,-26,249,290.9076,81.3306,-24.8028,1,1
0000996019,8,0.2282,0.6148,-0.2967,0.6942,-1051,-150,275,-1951,-331,-19,-149,-84,250,297.3115,81.4971,-18.9886,1,1
0000996040,8,0.2277,0.6125,-0.2894,0.6994,-1048,-128,282,-1927,-311,-59,-233,-151,265,303.1363,81.3543,-13.8354,1,1
0000996061,8,0.2250,0.6094,-0.2805,0.7066,-1045,-107,294,-1967,-407,0,-345,-236,284,309.2657,80.9165,-8.7067,1,1
0000996082,8,0.2198,0.6051,-0.2701,0.7160,-1032,-88,313,-2091,-543,123,-446,-331,292,315.2377,80.1227,-4.0700,1,1
0000996103,8,0.2121,0.5995,-0.2588,0.7271,-1018,-77,345,-2287,-383,255,-532,-435,276,320.3305,78.9719,-0.5798,1,1
0000996124,8,0.2004,0.5914,-0.2456,0.7415,-1018,-77,345,-2571,99,947,-491,-445,208,324.7510,77.2657,1.7458,1,1
0000996145,8,0.1933,0.5844,-0.2406,0.7505,-997,-74,373,-2383,523,1319,-152,-408,47,326.0906,75.9707,2.1094,1,1
0000996166,8,0.1942,0.5738,-0.2471,0.7563,-971,-66,418,-1943,531,2115,481,-525,-78,325.4571,74.5592,2.1682,1,1
0000996187,8,0.2067,0.5532,-0.2673,0.7615,-932,-26,502,-2199,-271,1735,1169,-854,-107,323.9454,72.3540,3.6007,1,1
0000996208,8,0.2214,0.5236,-0.2905,0.7697,-868,23,614,-2091,-991,2147,815,-1210,64,322.7215,69.1737,5.9158,1,1
0000996229,8,0.2211,0.4841,-0.3038,0.7903,-868,23,614,-2179,-443,2047,9,-1417,204,322.4914,64.0809,7.2629,1,1
0000996250,8,0.2040,0.4538,-0.3029,0.8129,-778,40,739,-2163,495,1851,-524,-1538,232,322.7943,59.4596,6.4162,1,1
0000996271,8,0.1825,0.4217,-0.3007,0.8357,-661,28,863,-2103,1159,1571,-406,-1613,181,323.0534,54.5489,5.0969,1,1
0000996292,8,0.1690,0.3853,-0.3040,0.8547,-524,46,978,-1855,1083,1595,105,-1611,120,323.0730,49.5875,4.8386,1,1
0000996313,8,0.1653,0.3451,-0.3119,0.8696,-377,99,1076,-1603,747,1507,464,-1588,117,322.9400,44.6999,5.8335,1,1
0000996334,8,0.1656,0.2931,-0.3212,0.8851,-377,99,1076,-1383,483,1491,477,-1538,201,322.8254,38.7058,7.7273,1,1
0000996355,8,0.1618,0.2537,-0.3239,0.8970,-222,153,1152,-1051,191,1319,166,-1478,289,322.9683,34.0515,8.7375,1,1
0000996376,8,0.1488,0.2192,-0.3213,0.9092,-70,164,1208,-939,647,979,-277,-1377,341,323.3522,29.6204,8.5849,1,1
0000996397,8,0.1301,0.1901,-0.3156,0.9205,70,134,1243,-923,1011,783,-436,-1222,324,323.8802,25.6056,7.6125,1,1
0000996418,8,0.1138,0.1649,-0.3106,0.9292,181,120,1265,-711,1123,587,-259,-1029,258,324.3636,22.1514,6.7623,1,1
0000996439,8,0.1048,0.1377,-0.3068,0.9359,181,120,1265,-707,915,511,78,-748,190,324.8278,18.7913,6.7767,1,1
0000996460,8,0.1055,0.1207,-0.3049,0.9388,261,136,1275,-691,751,515,256,-507,156,325.1258,16.9146,7.4765,1,1
0000996481,8,0.1112,0.1090,-0.3035,0.9400,305,169,1278,-727,451,423,324,-260,126,325.4050,15.8108,8.5419,1,1
0000996502,8,0.1180,0.1035,-0.3019,0.9403,311,196,1280,-751,323,455,257,-20,100,325.6930,15.4244,9.5202,1,1
0000996523,8,0.1239,0.1057,-0.2999,0.9400,280,207,1277,-803,359,471,115,243,68,326.0285,15.8431,10.1464,1,1
0000996544,8,0.1308,0.1187,-0.2976,0.9382,280,207,1277,-803,307,527,64,555,-13,326.4332,17.4944,10.5624,1,1
0000996565,8,0.1376,0.1360,-0.2968,0.9352,210,214,1272,-787,271,563,46,786,-86,326.6635,19.6345,10.8074,1,1
0000996586,8,0.1447,0.1595,-0.2965,0.9305,105,209,1255,-927,51,903,-31,997,-147,326.8284,22.4897,10.9003,1,1
0000996607,8,0.1494,0.1894,-0.2954,0.9244,-28,180,1227,-1051,199,887,-213,1218,-171,326.9948,25.9994,10.5299,1,1
0000996628,8,0.1520,0.2249,-0.2930,0.9168,-185,143,1177,-1363,287,1243,-281,1427,-195,327.1893,30.1019,9.7807,1,1
0000996649,8,0.1577,0.2735,-0.2901,0.9034,-185,143,1177,-1619,199,1639,-175,1532,-251,327.2987,35.8506,8.9641,1,0
0000996670,8,0.1634,0.3136,-0.2890,0.8896,-348,108,1103,-1967,87,2271,-188,1592,-310,327.0943,40.7228,8.3061,1,0
0000996691,8,0.1677,0.3551,-0.2875,0.8736,-514,64,1010,-2287,191,2247,-212,1653,-334,326.6587,45.7956,7.3123,1,1
0000996712,8,0.1734,0.3963,-0.2867,0.8548,-658,22,895,-2395,143,2007,-85,1671,-375,325.9258,50.9830,6.3145,1,1
0000996733,8,0.1835,0.4349,-0.2888,0.8329,-785,2,772,-2175,-343,2007,240,1631,-427,324.7381,56.1523,5.6024,1,1
0000996754,8,0.1991,0.4781,-0.2943,0.8032,-785,2,772,-2119,-839,2003,202,1510,-418,322.6051,62.2847,4.7263,1,1
0000996775,8,0.2037,0.5102,-0.2941,0.7821,-882,-31,651,-2343,-827,1947,-253,1328,-357,320.5573,66.6259,2.6900,1,1
0000996796,8,0.1971,0.5412,-0.2861,0.7658,-949,-93,540,-2239,-315,1527,-714,1150,-278,318.0903,70.3315,-1.3278,1,1
0000996817,8,0.1847,0.5654,-0.2737,0.7559,-981,-143,487,-2395,1083,4935,-785,547,-92,315.8290,72.9008,-5.9042,1,1
0000996838,8,0.1732,0.5687,-0.2633,0.7597,-981,-143,487,-3143,1067,-1403,-107,-56,92,316.5405,72.8206,-7.0832,1,1
0000996859,8,0.1799,0.5713,-0.2709,0.7536,-983,-147,486,-2087,215,139,637,287,-322,314.6936,73.4310,-7.7188,1,1
0000996880,8,0.1897,0.5715,-0.2867,0.7451,-987,-146,478,-1203,-683,1147,538,118,-283,310.9263,73.8353,-9.2880,1,1
0000996901,8,0.1903,0.5717,-0.2945,0.7417,-985,-163,477,-1831,-463,535,99,11,-229,308.2408,73.7908,-11.2380,1,1
0000996922,8,0.1910,0.5719,-0.3016,0.7386,-984,-171,478,-1879,-227,699,258,36,-211,305.8203,73.7289,-12.9770,1,1
0000996943,8,0.1930,0.5717,-0.3089,0.7352,-984,-171,478,-1971,-511,743,106,41,-167,303.6687,73.7034,-14.3178,1,1
0000996964,8,0.1898,0.5740,-0.3116,0.7331,-985,-183,476,-1979,-47,615,-158,46,-125,301.5890,73.7118,-16.4416,1,1
0000996985,8,0.1843,0.5772,-0.3106,0.7324,-984,-203,469,-1943,-83,407,-200,49,-122,300.1674,73.7400,-18.4283,1,1
0000997006,8,0.1797,0.5801,-0.3103,0.7313,-986,-222,462,-1883,-127,299,-135,43,-131,298.6790,73.7526,-20.3457,1,1
0000997027,8,0.1761,0.5819,-0.3116,0.7303,-982,-241,460,-1931,-139,375,-50,7,-138,297.2269,73.6670,-21.9975,1,1
0000997048,8,0.1736,0.5825,-0.3143,0.7293,-982,-241,460,-1967,-167,375,12,-26,-147,295.8106,73.4659,-23.3824,1,1
0000997069,8,0.1703,0.5825,-0.3180,0.7284,-980,-254,462,-1915,-195,527,-27,-44,-148,294.2136,73.1157,-24.9249,1,1
0000997090,8,0.1663,0.5827,-0.3202,0.7282,-974,-272,465,-1939,-167,567,-74,-55,-148,293.0645,72.7731,-26.2135,1,1
0000997111,8,0.1625,0.5828,-0.3226,0.7279,-968,-287,467,-1895,-203,607,-26,-47,-159,291.8821,72.4227,-27.5063,1,1
0000997132,8,0.1607,0.5822,-0.3267,0.7269,-965,-301,472,-1971,-551,579,102,-35,-160,290.6487,72.0786,-28.5132,1,1
0000997153,8,0.1604,0.5814,-0.3317,0.7254,-965,-301,472,-1871,-483,683,112,-10,-151,289.4016,71.7937,-29.3286,1,1
0000997174,8,0.1595,0.5814,-0.3364,0.7234,-960,-311,472,-1943,-399,667,47,11,-121,287.9554,71.5426,-30.4313,1,1
0000997195,8,0.1584,0.5821,-0.3387,0.7220,-959,-320,473,-1915,-295,679,5,27,-102,286.9452,71.4293,-31.3235,1,1
0000997216,8,0.1574,0.5831,-0.3405,0.7206,-956,-327,470,-1919,-283,595,18,41,-90,285.9988,71.3677,-32.1965,1,1
0000997237,8,0.1573,0.5840,-0.3424,0.7190,-956,-335,470,-1879,-355,555,41,50,-76,285.0963,71.3531,-32.9410,1,1
0000997258,8,0.1575,0.5850,-0.3442,0.7173,-956,-335,470,-1927,-527,491,42,51,-64,284.2620,71.3707,-33.6020,1,1
0000997279,8,0.1572,0.5859,-0.3452,0.7161,-957,-341,465,-1879,-403,471,-50,32,-42,283.5988,71.3901,-34.2051,1,1
0000997300,8,0.1551,0.5875,-0.3445,0.7156,-957,-346,461,-1951,-295,431,-76,11,-30,283.0979,71.3817,-34.9486,1,1
0000997321,8,0.1536,0.5881,-0.3442,0.7156,-957,-351,460,-1955,-251,455,-39,-4,-29,282.8662,71.3341,-35.3343,1,1
0000997342,8,0.1527,0.5881,-0.3447,0.7155,-954,-354,462,-1911,-419,479,4,-19,-30,282.6994,71.2505,-35.5325,1,1
0000997363,8,0.1524,0.5875,-0.3455,0.7157,-954,-354,462,-1895,-495,491,7,-33,-20,282.6497,71.1344,-35.5279,1,1
0000997384,8,0.1518,0.5869,-0.3460,0.7161,-954,-358,467,-1911,-507,491,-1,-39,-5,282.7198,71.0166,-35.4567,1,1
0000997405,8,0.1508,0.5862,-0.3457,0.7170,-952,-355,468,-1895,-431,567,-53,-41,11,283.0293,70.8951,-35.2572,1,1
0000997426,8,0.1493,0.5861,-0.3443,0.7181,-950,-356,470,-1915,-391,563,-82,-37,26,283.3862,70.8341,-35.1530,1,0
0000997447,8,0.1475,0.5861,-0.3423,0.7194,-952,-357,468,-1915,-407,619,-110,-34,43,283.8134,70.7879,-35.0568,1,0
0000997468,8,0.1454,0.5866,-0.3393,0.7208,-952,-357,468,-1907,-399,595,-157,-24,57,284.3614,70.8038,-34.9535,1,0
0000997489,8,0.1426,0.5875,-0.3357,0.7223,-950,-361,465,-1863,-359,551,-187,-18,59,284.8613,70.8329,-35.0172,1,0
0000997510,8,0.1389,0.5889,-0.3304,0.7244,-954,-361,462,-1899,-439,487,-194,-23,66,285.6082,70.9084,-35.0665,1,0
0000997531,8,0.1357,0.5900,-0.3261,0.7261,-951,-362,458,-1911,-471,519,-201,-30,71,286.2197,70.9456,-35.1083,1,0
0000997552,8,0.1323,0.5909,-0.3216,0.7279,-954,-366,457,-1919,-399,543,-210,-31,76,286.9019,70.9807,-35.1156,1,0
0000997573,8,0.1294,0.5918,-0.3170,0.7297,-954,-366,457,-1911,-403,579,-198,-24,79,287.6551,71.0457,-35.0152,1,0
0000997594,8,0.1263,0.5928,-0.3124,0.7314,-954,-367,450,-1883,-423,563,-210,-21,85,288.3520,71.1150,-34.9930,1,0
0000997615,8,0.1225,0.5942,-0.3058,0.7338,-956,-365,446,-1927,-383,547,-223,-22,95,289.3942,71.2440,-34.8549,1,0
0000997636,8,0.1198,0.5952,-0.3010,0.7354,-959,-366,444,-1915,-339,535,-169,-14,95,290.1792,71.3492,-34.7207,1,0
0000997657,8,0.1189,0.5956,-0.2975,0.7366,-961,-363,442,-1895,-299,571,-86,-3,86,290.9362,71.4857,-34.3547,1,0
0000997678,8,0.1189,0.5959,-0.2951,0.7373,-961,-363,442,-1919,-275,559,-13,7,75,291.4927,71.6161,-34.0036,1,0
0000997699,8,0.1201,0.5959,-0.2938,0.7377,-964,-355,441,-1935,-367,607,19,13,74,291.9693,71.7586,-33.5522,1,0
0000997720,8,0.1224,0.5960,-0.2922,0.7379,-966,-345,438,-1915,-323,627,25,30,80,292.6129,71.9934,-32.8520,1,0
0000997741,8,0.1246,0.5962,-0.2912,0.7377,-971,-335,438,-1955,-303,655,49,49,84,293.0252,72.2212,-32.3547,1,0
0000997762,8,0.1279,0.5967,-0.2905,0.7371,-977,-324,434,-1971,-255,615,93,75,86,293.4036,72.5290,-31.7650,1,0
0000997783,8,0.1322,0.5972,-0.2905,0.7359,-977,-324,434,-1967,-319,595,136,94,91,293.6539,72.8845,-31.1599,1,0
0000997804,8,0.1370,0.5979,-0.2904,0.7345,-983,-308,430,-1943,-307,579,127,112,99,293.8848,73.2935,-30.5421,1,0
0000997825,8,0.1436,0.5992,-0.2899,0.7323,-993,-292,425,-1975,-315,591,139,137,109,294.2613,73.9195,-29.6721,1,0
0000997846,8,0.1490,0.6007,-0.2895,0.7302,-999,-277,415,-1951,-243,603,138,163,109,294.4223,74.4743,-29.1023,1,0
0000997867,8,0.1549,0.6027,-0.2888,0.7276,-999,-277,415,-1967,-283,643,134,191,116,294.5593,75.1266,-28.5500,1,0
0000997888,8,0.1608,0.6053,-0.2876,0.7246,-1011,-261,405,-1999,-343,651,121,236,138,294.6259,75.8577,-28.1109,1,0
0000997909,8,0.1670,0.6087,-0.2857,0.7211,-1021,-242,387,-1983,-135,515,113,287,147,294.6325,76.7299,-27.7665,1,0
0000997930,8,0.1766,0.6136,-0.2835,0.7155,-1037,-220,367,-1935,-267,447,192,309,154,294.5550,78.0142,-27.2580,1,0
0000997951,8,0.1847,0.6173,-0.2822,0.7108,-1053,-200,347,-1855,-359,235,155,300,156,294.4214,79.0430,-26.8370,1,0
0000997972,8,0.1912,0.6210,-0.2790,0.7071,-1053,-200,347,-1895,-239,-55,47,251,178,294.9445,80.0176,-26.0594,1,0
0000997993,8,0.1960,0.6239,-0.2750,0.7047,-1062,-179,328,-1923,-91,-239,24,185,180,296.1075,80.8312,-24.8529,1,0
0000998014,8,0.2011,0.6254,-0.2724,0.7031,-1072,-159,320,-1955,-243,-279,142,85,164,297.8459,81.4483,-22.9158,1,0
0000998035,8,0.2084,0.6238,-0.2716,0.7026,-1075,-137,318,-1935,-331,-263,139,-5,158,301.3914,81.8111,-18.8213,1,0
0000998056,8,0.2115,0.6215,-0.2699,0.7044,-1074,-117,328,-1967,-207,-271,0,-104,170,304.8654,81.7836,-15.2279,1,0
0000998077,8,0.2118,0.6178,-0.2661,0.7090,-1074,-117,328,-2011,-283,-239,-119,-219,196,309.4634,81.3904,-10.9159,1,0
0000998098,8,0.2094,0.6127,-0.2603,0.7163,-1068,-101,345,-2143,-527,-91,-251,-335,236,314.3661,80.6374,-6.6978,1,0
0000998119,8,0.2038,0.6063,-0.2520,0.7261,-1054,-87,372,-2531,-491,263,-461,-461,251,319.1817,79.5210,-3.0470,1,0
0000998140,8,0.1921,0.5965,-0.2400,0.7414,-1034,-79,410,-2631,-147,351,-477,-542,186,323.8027,77.6168,-0.3956,1,0
0000998161,8,0.1843,0.5866,-0.2367,0.7523,-1002,-81,454,-2563,231,1287,-131,-573,28,324.9920,75.8882,-0.0967,1,0
0000998182,8,0.1822,0.5741,-0.2432,0.7603,-1002,-81,454,-2363,1083,1871,327,-635,-117,324.2043,74.0758,-0.4323,1,0
0000998203,8,0.1904,0.5527,-0.2621,0.7678,-963,-67,523,-2395,-295,1931,1079,-967,-153,322.6570,71.5497,0.4908,1,0
0000998224,8,0.2047,0.5203,-0.2881,0.7774,-895,-12,636,-1895,-983,2459,923,-1333,-37,321.2326,67.9632,2.8175,1,0
0000998245,8,0.2039,0.4778,-0.3046,0.7984,-799,22,759,-1995,-219,2139,60,-1511,137,320.8360,62.5135,4.2798,1,0
0000998266,8,0.1883,0.4443,-0.3067,0.8204,-677,25,885,-2083,587,1955,-286,-1629,175,321.1437,57.6165,3.8950,1,0
0000998287,8,0.1707,0.4083,-0.3085,0.8420,-677,25,885,-2003,771,1895,-203,-1709,137,321.4095,52.4568,3.3417,1,1
0000998308,8,0.1562,0.3690,-0.3133,0.8610,-528,27,1001,-1707,927,1607,62,-1734,69,321.4022,47.1620,3.1786,1,1
0000998329,8,0.1480,0.3270,-0.3216,0.8762,-365,56,1103,-1327,879,1363,411,-1670,14,321.1337,41.9345,3.7730,1,1
0000998350,8,0.1449,0.2738,-0.3341,0.8902,-199,109,1180,-1095,703,1163,546,-1574,10,320.5630,35.7535,5.2998,1,1
0000998371,8,0.1432,0.2335,-0.3426,0.8987,-40,158,1229,-795,311,1007,404,-1454,37,320.0931,31.1882,6.5353,1,1
0000998392,8,0.1357,0.1989,-0.3473,0.9063,-40,158,1229,-743,343,771,46,-1299,68,319.7337,27.0551,6.9475,1,1
0000998413,8,0.1211,0.1716,-0.3489,0.9133,96,159,1263,-775,807,391,-260,-1101,70,319.5091,23.4512,6.3536,1,1
0000998434,8,0.1061,0.1508,-0.3493,0.9187,210,131,1279,-679,1095,127,-211,-798,31,319.3632,20.5605,5.4897,1,1
0000998455,8,0.0952,0.1315,-0.3506,0.9224,279,127,1289,-723,1011,135,4,-535,0,319.1752,18.0192,5.0330,1,1
0000998476,8,0.0948,0.1217,-0.3520,0.9232,313,142,1291,-667,807,167,141,-257,-2,319.0582,16.9411,5.3667,1,1
0000998497,8,0.0985,0.1182,-0.3527,0.9230,313,142,1291,-679,723,183,186,37,1,319.0355,16.7161,5.8964,1,1
0000998518,8,0.1060,0.1219,-0.3529,0.9216,300,157,1291,-707,719,239,205,334,-7,319.1060,17.4250,6.5770,1,1
0000998539,8,0.1171,0.1325,-0.3528,0.9188,242,181,1286,-739,655,347,262,700,-47,319.2337,19.0375,7.3983,1,1
0000998560,8,0.1350,0.1552,-0.3526,0.9129,143,208,1269,-799,487,479,282,974,-86,319.4384,22.2442,8.5160,1,1
0000998581,8,0.1522,0.1808,-0.3522,0.9056,3,229,1243,-1063,419,643,267,1235,-129,319.6714,25.7580,9.4773,1,1
0000998602,8,0.1706,0.2124,-0.3513,0.8957,3,229,1243,-1135,23,1075,238,1480,-168,319.9644,30.0230,10.4078,1,1
0000998623,8,0.1866,0.2504,-0.3476,0.8841,-164,229,1191,-1543,323,1331,-30,1654,-124,320.5323,34.9247,10.9591,1,1
0000998644,8,0.1991,0.2925,-0.3400,0.8713,-350,209,1116,-1851,-111,1907,-150,1803,-60,321.4684,40.1703,11.1811,1,1
0000998665,8,0.2127,0.3486,-0.3263,0.8525,-535,176,1009,-2455,-219,2607,-325,1900,-45,323.1327,47.1552,11.4719,1,1
0000998686,8,0.2185,0.3956,-0.3116,0.8359,-705,129,880,-3003,-343,2339,-491,1904,-21,324.7779,52.8903,11.3611,1,1
0000998707,8,0.2233,0.4407,-0.2962,0.8174,-705,129,880,-2991,-435,2211,-395,1843,-45,326.6074,58.5127,11.4827,1,1
0000998728,8,0.2290,0.4810,-0.2841,0.7971,-845,92,740,-2739,-971,1959,-283,1656,-132,328.2349,63.7721,11.9799,1,1
0000998749,8,0.2290,0.5160,-0.2739,0.7786,-941,46,612,-2479,-771,1575,-539,1271,-231,329.0812,68.2828,11.5352,1,1
0000998770,8,0.2197,0.5520,-0.2616,0.7606,-1001,-9,515,-2051,-671,1035,-589,1000,-275,328.5089,72.6927,8.7827,1,1
0000998791,8,0.2096,0.5727,-0.2546,0.7505,-1025,-58,468,-527,-619,3179,-549,521,-241,326.4779,75.0918,5.1402,1,1
0000998812,8,0.1951,0.5770,-0.2444,0.7545,-1025,-58,468,-5135,3415,-1811,-689,-237,62,326.2040,75.0256,2.7370,1,1
0000998833,8,0.1972,0.5769,-0.2493,0.7524,-1025,-72,472,-1391,107,663,766,221,-295,324.9041,75.1218,2.0426,1,1
0000998854,8,0.2078,0.5760,-0.2690,0.7434,-1023,-79,472,-1035,-523,671,434,-114,-290,320.0430,75.5147,-0.2233,1,1
0000998875,8,0.2062,0.5729,-0.2790,0.7426,-1016,-97,478,-1751,-819,867,-153,-95,-226,316.5201,74.9927,-2.9838,1,1
0000998896,8,0.1926,0.5762,-0.2762,0.7447,-1009,-135,480,-1895,119,559,-518,-79,-183,314.0673,74.7064,-6.8519,1,1
0000998917,8,0.1851,0.5772,-0.2771,0.7455,-1009,-135,480,-1971,-19,587,-39,-56,-205,312.0712,74.4158,-9.4053,1,1
0000998938,8,0.1806,0.5775,-0.2808,0.7450,-1003,-161,482,-2115,103,647,-103,-59,-204,309.8488,74.1379,-11.6827,1,1
0000998959,8,0.1734,0.5788,-0.2818,0.7453,-1001,-190,483,-2027,-71,819,-247,-35,-185,307.9527,73.8397,-14.1027,1,1
0000998980,8,0.1634,0.5818,-0.2817,0.7453,-995,-218,476,-1867,-167,755,-243,9,-186,305.5669,73.5966,-17.3517,1,1
0000999001,8,0.1571,0.5847,-0.2825,0.7441,-995,-243,469,-2007,-207,475,-135,45,-190,303.5192,73.5092,-19.8711,1,1
0000999022,8,0.1530,0.5875,-0.2847,0.7419,-995,-243,469,-1863,-315,699,-66,80,-192,301.3221,73.4934,-22.2326,1,1
0000999043,8,0.1493,0.5902,-0.2871,0.7395,-994,-267,461,-1971,31,575,-59,77,-181,299.1370,73.4851,-24.5257,1,1
0000999064,8,0.1470,0.5924,-0.2903,0.7370,-993,-286,455,-1983,-123,407,77,71,-184,297.0571,73.4504,-26.5250,1,0
0000999085,8,0.1470,0.5940,-0.2968,0.7331,-995,-296,453,-1879,-527,407,136,79,-187,294.3857,73.3759,-28.6380,1,0
0000999106,8,0.1468,0.5951,-0.3020,0.7301,-995,-296,453,-1907,-507,391,111,57,-165,292.3172,73.2764,-30.2682,1,0
0000999127,8,0.1470,0.5957,-0.3065,0.7277,-992,-307,450,-1887,-467,503,115,45,-142,290.6944,73.1657,-31.4813,1,0
0000999148,8,0.1475,0.5961,-0.3109,0.7254,-991,-316,450,-1923,-291,515,130,37,-121,289.2216,73.0502,-32.5166,1,0
0000999169,8,0.1485,0.5960,-0.3153,0.7234,-988,-323,451,-1983,-327,455,153,24,-105,288.0211,72.9308,-33.2456,1,0
0000999190,8,0.1506,0.5953,-0.3206,0.7212,-987,-324,454,-1935,-403,615,136,19,-89,286.8200,72.7932,-33.7951,1,0
0000999211,8,0.1513,0.5952,-0.3238,0.7197,-987,-324,454,-1931,-187,679,91,29,-73,285.9653,72.6978,-34.3087,1,0
0000999232,8,0.1527,0.5953,-0.3270,0.7179,-988,-327,452,-1963,-151,627,150,51,-74,285.0480,72.6643,-34.8215,1,0
0000999253,8,0.1555,0.5952,-0.3312,0.7154,-985,-327,452,-1935,-179,571,198,67,-79,284.0111,72.6865,-35.2454,1,0
0000999274,8,0.1588,0.5951,-0.3357,0.7127,-989,-327,454,-1903,-363,503,216,82,-71,282.8842,72.7276,-35.6863,1,0
0000999295,8,0.1634,0.5952,-0.3409,0.7091,-991,-323,450,-1923,-331,407,201,86,-62,281.5290,72.8467,-36.1937,1,0
0000999316,8,0.1669,0.5951,-0.3451,0.7063,-991,-323,450,-1919,-363,395,208,72,-57,280.4941,72.9159,-36.5632,1,0
0000999337,8,0.1702,0.5947,-0.3491,0.7039,-993,-321,452,-1875,-503,495,190,59,-49,279.6039,72.9503,-36.8051,1,0
0000999358,8,0.1729,0.5945,-0.3520,0.7020,-994,-317,451,-1907,-415,471,128,48,-33,278.9368,73.0062,-36.9837,1,0
0000999379,8,0.1749,0.5942,-0.3543,0.7005,-995,-316,454,-1959,-327,403,127,37,-20,278.4117,73.0430,-37.1216,1,0
0000999400,8,0.1777,0.5935,-0.3568,0.6992,-997,-308,456,-1935,-291,419,156,17,-10,278.1011,73.0858,-36.9750,1,0
0000999421,8,0.1811,0.5918,-0.3601,0.6981,-997,-308,456,-1967,-355,407,153,-2,0,277.9338,73.0762,-36.5438,1,0
0000999442,8,0.1830,0.5906,-0.3619,0.6977,-995,-303,459,-1903,-307,539,77,-12,9,277.9915,73.0433,-36.1510,1,0
0000999463,8,0.1840,0.5898,-0.3624,0.6978,-998,-298,464,-1935,-303,483,45,-9,20,278.2107,73.0451,-35.8013,1,0
0000999484,8,0.1850,0.5892,-0.3627,0.6979,-996,-295,465,-1935,-239,503,15,-8,29,278.4136,73.0527,-35.4854,1,0
0000999505,8,0.1854,0.5888,-0.3622,0.6984,-998,-291,467,-1971,-227,523,-8,-12,40,278.7654,73.0844,-35.1415,1,0
0000999526,8,0.1858,0.5885,-0.3611,0.6991,-998,-291,467,-1947,-355,491,-15,0,47,279.2400,73.1435,-34.7416,1,0
0000999547,8,0.1855,0.5888,-0.3593,0.6998,-1000,-288,467,-1907,-579,471,-86,6,65,279.6522,73.2308,-34.5152,1,0
0000999568,8,0.1840,0.5901,-0.3554,0.7012,-1001,-285,464,-1915,-503,463,-186,13,88,280.2894,73.3950,-34.3694,1,0
0000999589,8,0.1816,0.5919,-0.3503,0.7028,-1005,-286,457,-1931,-443,431,-207,18,102,280.9864,73.5835,-34.3419,1,0
0000999610,8,0.1794,0.5938,-0.3449,0.7045,-1007,-285,450,-1963,-443,439,-232,23,111,281.8018,73.8143,-34.2152,1,0
0000999631,8,0.1761,0.5964,-0.3371,0.7069,-1007,-285,450,-1959,-475,395,-266,17,135,282.9811,74.1274,-34.0325,1,0
0000999652,8,0.1724,0.5987,-0.3293,0.7095,-1011,-284,443,-1919,-487,343,-346,1,158,284.2554,74.3882,-33.7871,1,0
0000999673,8,0.1677,0.6011,-0.3199,0.7129,-1014,-280,433,-1919,-439,391,-408,-11,178,285.9371,74.6583,-33.3424,1,0
0000999694,8,0.1623,0.6036,-0.3096,0.7166,-1018,-280,426,-1927,-251,439,-425,-27,203,287.8517,74.9135,-32.8112,1,0
0000999715,8,0.1575,0.6054,-0.2990,0.7206,-1022,-273,421,-1959,-291,459,-383,-31,222,290.1481,75.1800,-31.8584,1,0
0000999736,8,0.1532,0.6069,-0.2867,0.7252,-1022,-273,421,-1915,-283,435,-321,-32,232,293.2754,75.5114,-30.1775,1,0
0000999757,8,0.1510,0.6075,-0.2777,0.7287,-1024,-262,415,-2015,-339,367,-257,-40,241,295.9620,75.7550,-28.4598,1,0
0000999778,8,0.1509,0.6071,-0.2698,0.7320,-1030,-246,417,-2019,-119,299,-160,-43,248,298.9679,75.9888,-26.1451,1,0
0000999799,8,0.1528,0.6059,-0.2642,0.7347,-1030,-224,418,-1975,-67,259,43,-52,224,301.8398,76.1697,-23.6016,1,0
0000999820,8,0.1578,0.6032,-0.2617,0.7368,-1032,-195,427,-1931,-223,307,131,-71,214,304.7398,76.2541,-20.4986,1,0
0000999841,8,0.1641,0.5991,-0.2592,0.7396,-1032,-195,427,-1947,-203,295,101,-91,222,308.3654,76.2206,-16.5429,1,0
0000999862,8,0.1687,0.5954,-0.2568,0.7424,-1032,-169,437,-1967,67,295,95,-115,216,311.4360,76.0822,-13.2758,1,0
0000999883,8,0.1738,0.5911,-0.2556,0.7450,-1027,-139,448,-1971,47,335,182,-131,197,314.1881,75.8347,-10.1780,1,0
0000999904,8,0.1800,0.5860,-0.2560,0.7475,-1025,-113,462,-2011,-179,419,222,-154,188,316.6755,75.4960,-7.1103,1,0
0000999925,8,0.1859,0.5804,-0.2561,0.7503,-1016,-84,477,-1991,-247,423,144,-182,202,319.1896,75.0579,-4.0654,1,0
0000999946,8,0.1901,0.5735,-0.2538,0.7553,-1016,-84,477,-2087,-183,471,27,-211,213,322.2255,74.3380,-0.8253,1,0
0000999967,8,0.1917,0.5680,-0.2501,0.7603,-1007,-61,494,-2291,23,539,-27,-223,240,324.7219,73.6596,1.5131,1,0
0000999988,8,0.1944,0.5619,-0.2464,0.7654,-996,-33,511,-2415,-47,571,50,-236,260,327.3002,72.9149,4.0416,1,0
0001000009,8,0.1970,0.5555,-0.2446,0.7699,-979,-12,529,-2399,-107,603,76,-240,152,329.0516,72.1380,5.9112,1,0
0001000030,8,0.1981,0.5493,-0.2454,0.7738,-961,0,551,-2447,-151,619,75,-279,28,329.5612,71.3291,6.6268,1,0
0001000051,8,0.1982,0.5409,-0.2496,0.7784,-961,0,551,-2131,175,1039,163,-317,-41,329.0290,70.2148,6.5266,1,0
0001000072,8,0.2009,0.5316,-0.2580,0.7814,-932,7,577,-1655,-11,1607,419,-430,-118,327.8745,69.1238,6.4075,1,0
0001000093,8,0.2056,0.5158,-0.2720,0.7859,-893,25,634,-2259,-647,1735,575,-712,-173,326.0450,67.3103,6.3436,1,0
0001000114,8,0.2062,0.4959,-0.2868,0.7933,-832,30,708,-1887,-471,1851,312,-900,-200,323.9087,64.8378,5.7616,1,0
0001000135,8,0.1974,0.4750,-0.2976,0.8043,-751,22,795,-1963,215,1755,-10,-1082,-198,321.9196,61.8293,4.2253,1,0
0001000156,8,0.1835,0.4452,-0.3112,0.8193,-751,22,795,-1867,663,1751,108,-1176,-236,319.7827,57.5341,2.5207,1,0
0001000177,8,0.1752,0.4175,-0.3253,0.8302,-654,20,888,-1739,779,1691,300,-1255,-261,318.1611,53.8178,1.8793,1,0
0001000198,8,0.1694,0.3865,-0.3413,0.8399,-539,38,978,-1531,767,1659,431,-1303,-265,316.6364,49.8965,1.8515,1,0
0001000219,8,0.1653,0.3537,-0.3570,0.8486,-418,69,1061,-1319,703,1523,466,-1313,-216,315.3400,45.9149,2.3002,1,0
0001000240,8,0.1602,0.3210,-0.3701,0.8569,-289,100,1127,-1231,863,1275,323,-1285,-115,314.3751,41.9708,2.8459,1,0
0001000261,8,0.1512,0.2822,-0.3812,0.8673,-289,100,1127,-1067,963,939,213,-1216,-27,313.6902,37.2061,3.3924,1,0
0001000282,8,0.1436,0.2541,-0.3864,0.8749,-167,125,1179,-951,971,675,141,-1074,44,313.4996,33.7555,3.7907,1,0
0001000303,8,0.1361,0.2304,-0.3886,0.8817,-63,139,1217,-835,923,443,60,-911,91,313.5502,30.8002,4.0697,1,0
0001000324,8,0.1282,0.2121,-0.3885,0.8875,17,141,1236,-739,911,415,-52,-703,116,313.7601,28.4278,4.0985,1,0
0001000345,8,0.1213,0.1993,-0.3872,0.8920,17,141,1236,-619,879,295,-75,-412,102,314.0191,26.7034,3.9817,1,0
0001000366,8,0.1168,0.1915,-0.3852,0.8952,60,138,1249,-627,855,231,-9,-155,67,314.3246,25.6459,3.9155,1,0
0001000387,8,0.1184,0.1913,-0.3845,0.8953,69,140,1252,-659,811,219,92,129,16,314.4536,25.7011,4.1308,1,0
0001000408,8,0.1255,0.1979,-0.3845,0.8929,31,153,1246,-663,651,279,202,437,-42,314.4971,26.7402,4.6192,1,0
0001000429,8,0.1375,0.2110,-0.3855,0.8877,-48,174,1227,-755,519,331,282,744,-109,314.4228,28.7284,5.3289,1,0
0001000450,8,0.1534,0.2305,-0.3874,0.8794,-48,174,1227,-1007,303,543,315,1120,-214,314.1949,31.6158,6.1521,1,0
0001000471,8,0.1757,0.2653,-0.3901,0.8640,-172,191,1190,-1323,-127,899,254,1394,-300,313.6876,36.5551,6.9125,1,0
0001000492,8,0.1915,0.3008,-0.3902,0.8489,-330,186,1128,-1471,-363,1243,-46,1598,-292,313.2275,41.3102,6.9074,1,0
0001000513,8,0.2000,0.3429,-0.3847,0.8334,-499,138,1039,-2251,-79,1963,-368,1717,-229,312.9350,46.4968,5.7914,1,0
0001000534,8,0.2067,0.3879,-0.3755,0.8160,-671,79,922,-3031,-283,2403,-420,1850,-205,312.6740,52.0212,4.2951,1,0
0001000555,8,0.2149,0.4341,-0.3648,0.7952,-671,79,922,-3287,-819,2095,-358,1921,-183,312.2162,57.8984,2.7086,1,0
0001000576,8,0.2236,0.4875,-0.3485,0.7687,-822,30,777,-2915,-1319,1951,-511,1696,-67,311.5668,64.8689,0.5299,1,0
0001000597,8,0.2200,0.5246,-0.3305,0.7531,-932,-21,645,-2579,-535,1671,-941,1315,-67,310.9012,69.3203,-2.4842,1,1
0001000618,8,0.2075,0.5557,-0.3111,0.7425,-991,-85,538,-1651,59,1999,-961,969,-78,309.2075,72.6249,-7.2346,1,1
0001000639,8,0.2011,0.5718,-0.3017,0.7359,-1009,-112,516,-1383,139,1599,-263,286,-99,307.4783,74.3535,-10.4567,1,1
0001000660,8,0.1977,0.5726,-0.3035,0.7355,-1009,-112,516,-3891,1171,-1779,319,101,-203,306.0139,74.2134,-12.0587,1,1
0001000681,8,0.2119,0.5717,-0.3232,0.7237,-1016,-117,509,-1155,-679,515,1002,133,-335,301.3517,74.6920,-13.7653,1,1
0001000702,8,0.2185,0.5655,-0.3369,0.7204,-1008,-107,523,-1367,-2471,839,228,-232,-119,299.2541,74.1486,-14.0186,1,1
0001000723,8,0.2059,0.5662,-0.3317,0.7260,-1000,-142,530,-1599,-431,363,-949,-198,-34,299.1857,73.4624,-15.6298,1,1
0001000744,8,0.1822,0.5716,-0.3152,0.7353,-988,-188,530,-1863,287,575,-1051,-219,44,300.0776,72.8475,-18.2548,1,1
0001000765,8,0.1675,0.5736,-0.3059,0.7412,-988,-188,530,-2043,243,735,-351,-151,-67,300.6495,72.3137,-19.7463,1,1
0001000786,8,0.1594,0.5727,-0.3053,0.7439,-982,-213,536,-2019,-63,511,-62,-122,-122,300.1249,71.7022,-20.9923,1,1
0001000807,8,0.1560,0.5709,-0.3078,0.7450,-973,-226,543,-1891,-851,795,-58,-138,-111,299.4995,71.1968,-21.6694,1,1
0001000828,8,0.1492,0.5703,-0.3065,0.7473,-965,-246,546,-1915,-559,943,-330,-127,-58,299.2827,70.7198,-22.5593,1,1
0001000849,8,0.1397,0.5719,-0.3018,0.7499,-962,-269,544,-1931,7,891,-392,-66,-47,299.2094,70.3963,-23.8512,1,1
0001000870,8,0.1332,0.5738,-0.2990,0.7508,-962,-269,544,-1987,-91,783,-149,5,-73,298.7989,70.2483,-25.0619,1,1
0001000891,8,0.1283,0.5759,-0.2981,0.7503,-962,-287,539,-1883,-323,671,-162,25,-76,297.9636,70.1815,-26.3904,1,1
0001000912,8,0.1237,0.5782,-0.2966,0.7500,-961,-300,533,-1899,-227,671,-178,27,-71,297.2606,70.1523,-27.6154,1,1
0001000933,8,0.1206,0.5798,-0.2960,0.7494,-960,-312,527,-1959,-247,503,-75,27,-65,296.6201,70.1272,-28.5761,1,1
0001000954,8,0.1194,0.5808,-0.2969,0.7485,-960,-319,525,-1895,-375,691,3,31,-66,295.9755,70.1112,-29.2462,1,1
0001000975,8,0.1191,0.5815,-0.2984,0.7474,-960,-319,525,-1923,-211,687,11,35,-58,295.3235,70.1092,-29.7955,1,1
0001000996,8,0.1185,0.5827,-0.2997,0.7461,-960,-329,521,-1927,-119,803,0,44,-55,294.5646,70.1291,-30.4990,1,1
0001001017,8,0.1184,0.5838,-0.3011,0.7446,-960,-329,517,-1951,-75,751,41,64,-64,293.8368,70.1830,-31.1158,1,1
0001001038,8,0.1199,0.5848,-0.3037,0.7425,-963,-332,514,-1899,-247,699,130,91,-79,292.9127,70.2774,-31.6865,1,1
0001001059,8,0.1228,0.5858,-0.3077,0.7396,-965,-332,510,-1955,-279,727,186,114,-89,291.7469,70.4109,-32.2657,1,1
0001001080,8,0.1264,0.5870,-0.3123,0.7361,-965,-332,510,-1915,-95,687,235,140,-99,290.3901,70.5920,-32.9201,1,1
0001001101,8,0.1328,0.5879,-0.3200,0.7310,-969,-333,508,-1967,-123,607,343,149,-121,288.4414,70.8225,-33.6608,1,1
0001001122,8,0.1401,0.5880,-0.3283,0.7258,-972,-325,506,-1911,-379,643,433,170,-132,286.5813,71.0138,-34.1763,1,1
0001001143,8,0.1478,0.5881,-0.3368,0.7202,-976,-318,503,-1883,-395,547,417,176,-129,284.6226,71.2312,-34.7241,1,1
0001001164,8,0.1551,0.5883,-0.3447,0.7149,-982,-311,501,-1899,-451,439,385,168,-112,282.7516,71.4540,-35.2815,1,1
0001001185,8,0.1619,0.5884,-0.3517,0.7098,-982,-311,501,-1855,-491,495,331,158,-99,281.0205,71.6652,-35.8150,1,1
0001001206,8,0.1689,0.5890,-0.3589,0.7041,-985,-307,496,-1879,-467,463,266,146,-80,279.0121,71.9310,-36.5808,1,1
0001001227,8,0.1734,0.5897,-0.3630,0.7003,-992,-300,494,-1919,-479,415,202,131,-58,277.6586,72.1468,-37.1832,1,1
0001001248,8,0.1769,0.5905,-0.3659,0.6972,-995,-298,485,-1903,-471,443,139,109,-38,276.5841,72.3450,-37.6997,1,1
0001001269,8,0.1793,0.5915,-0.3676,0.6949,-998,-295,480,-1923,-379,471,86,94,-22,275.7327,72.5333,-38.1998,1,1
0001001290,8,0.1813,0.5925,-0.3685,0.6930,-998,-295,480,-1935,-315,563,44,84,-5,275.0637,72.7185,-38.6226,1,1
0001001311,8,0.1831,0.5941,-0.3687,0.6911,-1002,-296,476,-1951,-223,531,29,90,1,274.3488,72.9705,-39.1810,1,1
0001001332,8,0.1851,0.5954,-0.3690,0.6893,-1005,-290,470,-1923,-387,395,73,100,0,273.7186,73.2056,-39.6169,1,0
0001001353,8,0.1877,0.5963,-0.3700,0.6873,-1011,-286,464,-1915,-439,411,88,93,0,273.0449,73.4315,-39.9916,1,0
0001001374,8,0.1897,0.5971,-0.3705,0.6857,-1011,-286,464,-1939,-411,411,54,77,19,272.4942,73.6313,-40.3215,1,0
0001001395,8,0.1916,0.5978,-0.3702,0.6847,-1014,-282,458,-1939,-295,383,34,58,41,272.2822,73.8509,-40.4053,1,0
0001001416,8,0.1934,0.5982,-0.3698,0.6841,-1019,-276,456,-1939,-347,339,42,47,51,272.2458,74.0502,-40.3307,1,0
0001001437,8,0.1957,0.5981,-0.3691,0.6839,-1021,-268,455,-1931,-431,179,39,18,68,272.5312,74.2803,-39.9131,1,0
0001001458,8,0.1974,0.5975,-0.3679,0.6846,-1021,-259,456,-1975,-571,163,0,-10,93,273.2578,74.4397,-39.1484,1,0
0001001479,8,0.1975,0.5974,-0.3650,0.6862,-1021,-259,456,-1899,-451,419,-122,-21,122,274.2835,74.5901,-38.3946,1,0
0001001500,8,0.1961,0.5978,-0.3598,0.6890,-1025,-251,455,-1955,-271,455,-195,-39,152,275.7839,74.7713,-37.4885,1,0
0001001521,8,0.1946,0.5981,-0.3542,0.6921,-1024,-246,452,-1947,-219,451,-180,-38,158,277.4711,74.9449,-36.4459,1,0
0001001542,8,0.1942,0.5977,-0.3480,0.6956,-1027,-232,454,-1947,-407,519,-104,-33,170,279.7199,75.1797,-34.7904,1,0
0001001563,8,0.1948,0.5972,-0.3432,0.6983,-1030,-220,452,-1931,-275,459,-105,-27,181,281.6823,75.4089,-33.2113,1,0
0001001584,8,0.1958,0.5966,-0.3387,0.7007,-1030,-220,452,-1955,-147,455,-61,-19,184,283.6926,75.6335,-31.5201,1,0
0001001605,8,0.1980,0.5956,-0.3349,0.7028,-1032,-202,452,-1947,-187,395,-14,-15,184,285.7563,75.8806,-29.6152,1,0
0001001626,8,0.2003,0.5945,-0.3312,0.7048,-1034,-185,455,-1931,-223,307,-28,-25,187,287.8682,76.0876,-27.6360,1,0
0001001647,8,0.2019,0.5929,-0.3258,0.7082,-1034,-166,458,-1935,-227,139,-85,-65,201,290.8929,76.2499,-24.9557,1,0
0001001668,8,0.2025,0.5909,-0.3207,0.7120,-1034,-149,464,-1975,-287,179,-111,-103,213,293.8192,76.2533,-22.4236,1,0
0001001689,8,0.2019,0.5887,-0.3150,0.7166,-1034,-149,464,-1975,-255,287,-170,-144,225,296.9273,76.1315,-19.8665,1,0
0001001710,8,0.2003,0.5859,-0.3082,0.7222,-1030,-133,472,-2071,-215,375,-217,-175,234,300.3786,75.8739,-17.1343,1,0
0001001731,8,0.1979,0.5833,-0.3011,0.7280,-1025,-119,483,-2223,-143,535,-237,-166,234,303.6740,75.5595,-14.6641,1,0
0001001752,8,0.1952,0.5804,-0.2919,0.7347,-1020,-106,490,-2187,-39,579,-221,-145,230,307.6132,75.1984,-11.7386,1,0
0001001773,8,0.1939,0.5777,-0.2858,0.7396,-1011,-92,498,-2307,-91,491,-134,-151,201,310.4001,74.8742,-9.5781,1,0
0001001794,8,0.1933,0.5744,-0.2827,0.7435,-1011,-92,498,-1991,71,639,-39,-163,102,312.2525,74.4561,-8.0298,1,0
0001001815,8,0.1945,0.5697,-0.2838,0.7464,-1003,-80,513,-2015,311,919,246,-205,52,313.2265,73.9134,-6.8295,1,0
0001001836,8,0.2004,0.5621,-0.2892,0.7485,-986,-60,537,-1791,55,1243,448,-267,56,314.0488,73.2150,-4.9850,1,0
0001001857,8,0.2120,0.5459,-0.3016,0.7524,-964,-21,582,-1703,-535,1871,629,-528,42,314.9538,71.6866,-1.8860,1,0
0001001878,8,0.2173,0.5266,-0.3120,0.7604,-917,14,659,-2139,-575,1739,427,-841,99,315.5907,69.4468,0.3023,1,0
0001001899,8,0.2147,0.5036,-0.3172,0.7744,-917,14,659,-2071,-143,1895,51,-1081,194,316.6672,66.3725,1.8662,1,0
0001001920,8,0.2057,0.4775,-0.3180,0.7928,-843,35,758,-2151,111,1923,-133,-1298,260,318.0066,62.6213,2.8143,1,0
0001001941,8,0.1936,0.4472,-0.3177,0.8134,-743,51,870,-2071,311,1939,-170,-1453,268,319.2020,58.2669,3.3632,1,0
0001001962,8,0.1765,0.4049,-0.3183,0.8388,-611,65,982,-1959,607,1919,-129,-1592,225,320.2157,52.3347,3.6042,1,0
0001001983,8,0.1638,0.3674,-0.3206,0.8576,-461,86,1087,-1779,667,1707,33,-1636,194,320.6854,47.3204,3.8342,1,0
0001002004,8,0.1550,0.3275,-0.3242,0.8738,-461,86,1087,-1471,635,1483,205,-1626,205,321.0372,42.2904,4.5317,1,1
0001002025,8,0.1487,0.2872,-0.3274,0.8878,-298,122,1170,-1311,615,1355,252,-1562,236,321.3720,37.3976,5.4853,1,1
0001002046,8,0.1426,0.2488,-0.3284,0.8999,-136,159,1230,-1063,587,1015,123,-1401,286,321.7747,32.7884,6.3713,1,1
0001002067,8,0.1316,0.2076,-0.3259,0.9129,5,172,1269,-831,719,783,-65,-1219,291,322.3828,27.6950,6.8126,1,1
0001002088,8,0.1199,0.1814,-0.3222,0.9213,123,161,1291,-799,943,575,-187,-1004,250,322.8594,24.3022,6.5593,1,1
0001002109,8,0.1102,0.1609,-0.3191,0.9274,123,161,1291,-791,1083,407,-113,-768,178,323.2270,21.6442,6.2761,1,1
0001002130,8,0.1055,0.1454,-0.3177,0.9310,202,159,1303,-739,955,367,66,-521,95,323.4158,19.7368,6.3419,1,1
0001002151,8,0.1066,0.1351,-0.3180,0.9323,247,175,1306,-699,675,475,154,-194,19,323.4538,18.6473,6.8343,1,1
0001002172,8,0.1100,0.1323,-0.3190,0.9320,247,188,1307,-699,679,399,107,101,-40,323.3979,18.4729,7.3096,1,1
0001002193,8,0.1156,0.1385,-0.3211,0.9297,203,199,1305,-735,631,379,143,376,-136,323.2006,19.3741,7.6730,1,1
0001002214,8,0.1241,0.1511,-0.3251,0.9252,203,199,1305,-787,423,515,182,634,-241,322.7917,21.1150,8.0997,1,1
0001002235,8,0.1334,0.1703,-0.3303,0.9187,125,210,1294,-871,259,615,108,887,-327,322.1946,23.6439,8.3228,1,1
0001002256,8,0.1410,0.1971,-0.3352,0.9104,4,199,1273,-1003,107,899,-131,1174,-367,321.5016,26.9614,8.0313,1,1
0001002277,8,0.1454,0.2396,-0.3382,0.8984,-141,153,1236,-1255,231,1215,-335,1355,-344,320.6679,31.9290,6.7114,1,1
0001002298,8,0.1476,0.2797,-0.3377,0.8866,-310,95,1173,-1635,191,1799,-375,1563,-326,320.0208,36.5526,5.2052,1,1
0001002319,8,0.1521,0.3238,-0.3358,0.8714,-310,95,1173,-1875,179,1823,-320,1768,-325,319.2505,41.7935,3.6647,1,1
0001002340,8,0.1606,0.3702,-0.3331,0.8522,-492,44,1077,-2455,123,1995,-153,1932,-310,318.3088,47.5580,2.2985,1,1
0001002361,8,0.1756,0.4166,-0.3315,0.8281,-676,19,948,-2903,-391,2095,180,2068,-339,317.0760,53.7426,1.4075,1,1
0001002382,8,0.1977,0.4718,-0.3310,0.7929,-836,-4,796,-2859,-1131,2183,113,1981,-350,314.7671,61.5378,0.1419,1,1
0001002403,8,0.2040,0.5139,-0.3247,0.7674,-836,-4,796,-2451,-467,2391,-541,1714,-330,312.1224,67.0969,-3.0397,1,1
0001002424,8,0.1957,0.5515,-0.3110,0.7489,-948,-77,650,-1719,91,2831,-820,1257,-223,308.4149,71.3980,-9.0138,1,1
0001002445,8,0.1878,0.5660,-0.3038,0.7430,-994,-127,588,-2891,2651,-2331,-291,-49,-93,306.1693,72.7845,-12.6598,1,1
0001002466,8,0.1964,0.5592,-0.3147,0.7414,-986,-103,603,-3143,-543,-1831,1151,57,-211,305.5329,72.3279,-11.5564,1,1
0001002487,8,0.2253,0.5549,-0.3499,0.7204,-997,-81,595,-1291,-1915,775,1167,248,-480,298.7454,73.1521,-12.6985,1,1
0001002508,8,0.2319,0.5518,-0.3643,0.7134,-997,-81,595,-1807,-927,603,249,-56,-235,295.4478,73.0110,-14.0879,1,1
